{"FT.FTTESTCD": {"sdtm_domain": "FT", "sdtm_variable": "FTTESTCD", "sdtm_label": "Short Name of Test", "codelist": "AVL01TC", "codelist_name": "ADNI Auditory Verbal Learning Functional Test Test Code", "codelist_code": "C101807"}, "FT.FTTEST": {"sdtm_domain": "FT", "sdtm_variable": "FTTEST", "sdtm_label": "Name of Test", "codelist": "AVL01TN", "codelist_name": "ADNI Auditory Verbal Learning Functional Test Test Name", "codelist_code": "C101808"}, "QS.QSTESTCD": {"sdtm_domain": "QS", "sdtm_variable": "QSTESTCD", "sdtm_label": "Question Short Name", "codelist": "QSTESTCD", "codelist_name": "Question Short Name", "codelist_code": "AZC00236"}, "QS.QSTEST": {"sdtm_domain": "QS", "sdtm_variable": "QSTEST", "sdtm_label": "Question Name", "codelist": "QSTEST", "codelist_name": "Question Name", "codelist_code": "AZC00235"}, "AE.AEACN": {"sdtm_domain": "AE", "sdtm_variable": "AEACN", "sdtm_label": "Action Taken with Study Treatment", "codelist": "ACN", "codelist_name": "Action Taken with Study Treatment", "codelist_code": "C66767"}, "SUPPAE.AEACN1": {"sdtm_domain": "SUPPAE", "sdtm_variable": "AEACN1", "sdtm_label": "Action Taken, Investigational Product 1", "codelist": "ACN", "codelist_name": "Action Taken with Study Treatment", "codelist_code": "C66767"}, "SUPPAE.AEACNAD": {"sdtm_domain": "SUPPAE", "sdtm_variable": "AEACNAD", "sdtm_label": "Action Taken, Additional Drug", "codelist": "ACN", "codelist_name": "Action Taken with Study Treatment", "codelist_code": "C66767"}, "SUPPAE.AEACNAD1": {"sdtm_domain": "SUPPAE", "sdtm_variable": "AEACNAD1", "sdtm_label": "Action Taken, Additional Drug 1", "codelist": "ACN", "codelist_name": "Action Taken with Study Treatment", "codelist_code": "C66767"}, "SUPPEC.ECACN": {"sdtm_domain": "SUPPEC", "sdtm_variable": "ECACN", "sdtm_label": "Action Taken with Study Drug", "codelist": "ACN", "codelist_name": "Action Taken with Study Treatment", "codelist_code": "C66767"}, "SUPPEX.EXACN": {"sdtm_domain": "SUPPEX", "sdtm_variable": "EXACN", "sdtm_label": "Action Taken with Study Drug", "codelist": "ACN", "codelist_name": "Action Taken with Study Treatment", "codelist_code": "C66767"}, "SUPPPC.ACPTSTAT": {"sdtm_domain": "SUPPPC", "sdtm_variable": "ACPTSTAT", "sdtm_label": "Sample Acceptance Status", "codelist": "ACPTSTAT", "codelist_name": "Sample Acceptance Status", "codelist_code": "AZC02674"}, "SUPPGF.ADA1Q22S": {"sdtm_domain": "SUPPGF", "sdtm_variable": "ADA1Q22S", "sdtm_label": "1q Gain Present, Specify", "codelist": "ADA1Q22S", "codelist_name": "1q Gain Present, Specify", "codelist_code": "AZC02716"}, "SUPPCE.ADJFCYFL": {"sdtm_domain": "SUPPCE", "sdtm_variable": "ADJFCYFL", "sdtm_label": "Final Adjudication Cycle Flag", "codelist": "ADJFCYFL", "codelist_name": "Final Adjudication Cycle Flag", "codelist_code": "AZC02675"}, "SUPPYB.ADJFCYFL": {"sdtm_domain": "SUPPYB", "sdtm_variable": "ADJFCYFL", "sdtm_label": "Final Adjudication Cycle Flag", "codelist": "ADJFCYFL", "codelist_name": "Final Adjudication Cycle Flag", "codelist_code": "AZC02675"}, "SUPPCE.ADJTYPE": {"sdtm_domain": "SUPPCE", "sdtm_variable": "ADJTYPE", "sdtm_label": "Type of Adjudication", "codelist": "ADJTYPE", "codelist_name": "Type of Adjudication", "codelist_code": "AZC02676"}, "SUPPYB.ADJTYPE": {"sdtm_domain": "SUPPYB", "sdtm_variable": "ADJTYPE", "sdtm_label": "Type of Adjudication", "codelist": "ADJTYPE", "codelist_name": "Type of Adjudication", "codelist_code": "AZC02676"}, "SUPPAE.AECAAD": {"sdtm_domain": "SUPPAE", "sdtm_variable": "AECAAD", "sdtm_label": "Causality to Additional Drug", "codelist": "AECAAD", "codelist_name": "Causality to Additional Drug", "codelist_code": "AZC02283"}, "SUPPAE.AECAAD1": {"sdtm_domain": "SUPPAE", "sdtm_variable": "AECAAD1", "sdtm_label": "Causality to Additional Drug 1", "codelist": "AECAAD1", "codelist_name": "Causality to Additional Drug 1", "codelist_code": "AZC02284"}, "SUPPDE.AECAUSFL": {"sdtm_domain": "SUPPDE", "sdtm_variable": "AECAUSFL", "sdtm_label": "AE Caused by Device Event Flag", "codelist": "AECAUSFL", "codelist_name": "AE Caused by Device Event Flag", "codelist_code": "AZC02463"}, "SUPPAE.AEDLT": {"sdtm_domain": "SUPPAE", "sdtm_variable": "AEDLT", "sdtm_label": "Dose Limiting Toxicity", "codelist": "AEDLT", "codelist_name": "Dose Limiting Toxicity", "codelist_code": "AZC02565"}, "SUPPAE.AEDREL": {"sdtm_domain": "SUPPAE", "sdtm_variable": "AEDREL", "sdtm_label": "Reasonable Possibility AE Caus by Device", "codelist": "AEDREL", "codelist_name": "Reasonable Possibility AE Caus by Device", "codelist_code": "AZC02464"}, "AE.AEENTPT": {"sdtm_domain": "AE", "sdtm_variable": "AEENTPT", "sdtm_label": "End Reference Time Point", "codelist": "AEENTPT", "codelist_name": "End Reference Time Point", "codelist_code": "AZC02264"}, "SUPPAE.AEONSDIP": {"sdtm_domain": "SUPPAE", "sdtm_variable": "AEONSDIP", "sdtm_label": "AE Onset Status on Day of IP Admin", "codelist": "AEONSDIP", "codelist_name": "AE Onset Status on Day of IP Admin", "codelist_code": "AZC02352"}, "AE.AEREL": {"sdtm_domain": "AE", "sdtm_variable": "AEREL", "sdtm_label": "Causality", "codelist": "AEREL", "codelist_name": "Causality", "codelist_code": "AZC00005"}, "SUPPAE.AEREL1": {"sdtm_domain": "SUPPAE", "sdtm_variable": "AEREL1", "sdtm_label": "Causality to IP 1", "codelist": "AEREL1", "codelist_name": "Causality to IP 1", "codelist_code": "AZC00006"}, "AE.AESEV": {"sdtm_domain": "AE", "sdtm_variable": "AESEV", "sdtm_label": "Severity/Intensity", "codelist": "AESEV", "codelist_name": "Severity/Intensity Scale for Adverse Events", "codelist_code": "C66769"}, "AG.AGCAT": {"sdtm_domain": "AG", "sdtm_variable": "AGCAT", "sdtm_label": "Category for Agent", "codelist": "AGCAT", "codelist_name": "Category for Agent", "codelist_code": "AZC00362"}, "DM.AGEU": {"sdtm_domain": "DM", "sdtm_variable": "AGEU", "sdtm_label": "Age Units", "codelist": "AGEU", "codelist_name": "Age Unit", "codelist_code": "C66781"}, "AG.AGLNKID": {"sdtm_domain": "AG", "sdtm_variable": "AGLNKID", "sdtm_label": "Link ID", "codelist": "AGLNKID", "codelist_name": "Link ID", "codelist_code": "AZC02677"}, "AG.AGSCAT": {"sdtm_domain": "AG", "sdtm_variable": "AGSCAT", "sdtm_label": "Subcategory for Agent", "codelist": "AGSCAT", "codelist_name": "Subcategory for Agent", "codelist_code": "AZC00364"}, "CC.CCTESTCD": {"sdtm_domain": "CC", "sdtm_variable": "CCTESTCD", "sdtm_label": "Clinical Classification Short Name", "codelist": "UHDR1TC", "codelist_name": "Unified Huntington's Disease Rating Scale '99 Clinical Classification Test Code", "codelist_code": "C154449"}, "CC.CCTEST": {"sdtm_domain": "CC", "sdtm_variable": "CCTEST", "sdtm_label": "Clinical Classification Test Name", "codelist": "UHDR1TN", "codelist_name": "Unified Huntington's Disease Rating Scale '99 Clinical Classification Test Name", "codelist_code": "C154448"}, "SUPPGF.ALLETYPE": {"sdtm_domain": "SUPPGF", "sdtm_variable": "ALLETYPE", "sdtm_label": "Type of 1p32 Deletion", "codelist": "ALLETYPE", "codelist_name": "Type of 1p32 Deletion", "codelist_code": "AZC02717"}, "SUPPLB.ALRTFL": {"sdtm_domain": "SUPPLB", "sdtm_variable": "ALRTFL", "sdtm_label": "Alert Flag", "codelist": "ALRTFL", "codelist_name": "Alert Flag", "codelist_code": "AZC02465"}, "SUPPLC.ALRTFL": {"sdtm_domain": "SUPPLC", "sdtm_variable": "ALRTFL", "sdtm_label": "Alert Flag", "codelist": "ALRTFL", "codelist_name": "Alert Flag", "codelist_code": "AZC02465"}, "DM.ARMNRS": {"sdtm_domain": "DM", "sdtm_variable": "ARMNRS", "sdtm_label": "Reason Arm and/or Actual Arm is Null", "codelist": "ARMNULRS", "codelist_name": "Arm Null Reason", "codelist_code": "C142179"}, "SUPPLB.AZLABCD": {"sdtm_domain": "SUPPLB", "sdtm_variable": "AZLABCD", "sdtm_label": "AZ Lab Test Code", "codelist": "AZLABCD", "codelist_name": "AZ Lab Test Code", "codelist_code": "AZC02466"}, "SUPPLC.AZLABCD": {"sdtm_domain": "SUPPLC", "sdtm_variable": "AZLABCD", "sdtm_label": "AZ Lab Test Code", "codelist": "AZLABCD", "codelist_name": "AZ Lab Test Code", "codelist_code": "AZC02466"}, "SUPPLB.AZLABNM": {"sdtm_domain": "SUPPLB", "sdtm_variable": "AZLABNM", "sdtm_label": "AZ Lab Test Name", "codelist": "AZLABNM", "codelist_name": "AZ Lab Test Name", "codelist_code": "AZC02467"}, "SUPPLC.AZLABNM": {"sdtm_domain": "SUPPLC", "sdtm_variable": "AZLABNM", "sdtm_label": "AZ Lab Test Name", "codelist": "AZLABNM", "codelist_name": "AZ Lab Test Name", "codelist_code": "AZC02467"}, "SUPPRE.BDADM": {"sdtm_domain": "SUPPRE", "sdtm_variable": "BDADM", "sdtm_label": "Bronchodilator Administered", "codelist": "BDADM", "codelist_name": "Bronchodilator Administered", "codelist_code": "AZC02592"}, "BE.BEDECOD": {"sdtm_domain": "BE", "sdtm_variable": "BEDECOD", "sdtm_label": "Dictionary-Derived Term", "codelist": "BEDECOD", "codelist_name": "Biospecimen Events Dictionary Derived Term", "codelist_code": "C124297"}, "SUPPMI.BIOPTYP": {"sdtm_domain": "SUPPMI", "sdtm_variable": "BIOPTYP", "sdtm_label": "Tumor Type", "codelist": "BIOPTYP", "codelist_name": "Tumor Type", "codelist_code": "AZC02512"}, "SUPPMI.BIOTTYP": {"sdtm_domain": "SUPPMI", "sdtm_variable": "BIOTTYP", "sdtm_label": "Biopsy Tissue Type", "codelist": "BIOTTYP", "codelist_name": "Biopsy Tissue Type", "codelist_code": "AZC02593"}, "SUPPPF.BRCAMTH": {"sdtm_domain": "SUPPPF", "sdtm_variable": "BRCAMTH", "sdtm_label": "Specimen Collection Method", "codelist": "BRCAMTH", "codelist_name": "Specimen Collection Method", "codelist_code": "AZC02265"}, "SUPPPF.BRCGCMU": {"sdtm_domain": "SUPPPF", "sdtm_variable": "BRCGCMU", "sdtm_label": "Sb Not Has Del/Susp Del Germ. BRCA Mut", "codelist": "BRCGCMU", "codelist_name": "Sb Not Has Del/Susp Del Germ. BRCA Mut", "codelist_code": "AZC02266"}, "EC.ECMOOD": {"sdtm_domain": "EC", "sdtm_variable": "ECMOOD", "sdtm_label": "Mood", "codelist": "BRDGMOOD", "codelist_name": "BRIDG Activity Mood", "codelist_code": "C125923"}, "SUPPFA.BSIND": {"sdtm_domain": "SUPPFA", "sdtm_variable": "BSIND", "sdtm_label": "Block Section Indicator", "codelist": "BSIND", "codelist_name": "Block Section Indicator", "codelist_code": "AZC00011"}, "BS.BSTEST": {"sdtm_domain": "BS", "sdtm_variable": "BSTEST", "sdtm_label": "Biospecimen Test Name", "codelist": "BSTEST", "codelist_name": "Biospecimen Characteristics Test Name", "codelist_code": "C124299"}, "BS.BSTESTCD": {"sdtm_domain": "BS", "sdtm_variable": "BSTESTCD", "sdtm_label": "Biospecimen Test Short Name", "codelist": "BSTESTCD", "codelist_name": "Biospecimen Characteristics Test Code", "codelist_code": "C124300"}, "CC.CCCAT": {"sdtm_domain": "CC", "sdtm_variable": "CCCAT", "sdtm_label": "Category of Clinical Classification", "codelist": "CCCAT", "codelist_name": "Category of Clinical Classification", "codelist_code": "C118971"}, "SUPPGF.CEBPA": {"sdtm_domain": "SUPPGF", "sdtm_variable": "CEBPA", "sdtm_label": "If CEBPA, specify in-frame bZIP CEBPA", "codelist": "CEBPA", "codelist_name": "If CEBPA, specify in-frame bZIP CEBPA", "codelist_code": "AZC02545"}, "CE.CECAT": {"sdtm_domain": "CE", "sdtm_variable": "CECAT", "sdtm_label": "Category for the Clinical Event", "codelist": "CECAT", "codelist_name": "Category for the Clinical Event", "codelist_code": "AZC00368"}, "SUPPCE.CEEVALID": {"sdtm_domain": "SUPPCE", "sdtm_variable": "CEEVALID", "sdtm_label": "Evaluator Identifier", "codelist": "CEEVALID", "codelist_name": "Evaluator Identifier", "codelist_code": "AZC02678"}, "CP.CPCELSTA": {"sdtm_domain": "CP", "sdtm_variable": "CPCELSTA", "sdtm_label": "Cell State", "codelist": "CELSTATE", "codelist_name": "Cell State Response", "codelist_code": "C181172"}, "CE.CESCAT": {"sdtm_domain": "CE", "sdtm_variable": "CESCAT", "sdtm_label": "Subcategory for the Clinical Event", "codelist": "CESCAT", "codelist_name": "Subcategory for the Clinical Event", "codelist_code": "AZC00374"}, "SUPPGF.CLFR20": {"sdtm_domain": "SUPPGF", "sdtm_variable": "CLFR20", "sdtm_label": "Clonal Fraction Above 20%", "codelist": "CLFR20", "codelist_name": "Clonal Fraction Above 20%", "codelist_code": "AZC02718"}, "SUPPRS.CLLTR": {"sdtm_domain": "SUPPRS", "sdtm_variable": "CLLTR", "sdtm_label": "CLL Transformation to More Agressive", "codelist": "CLLTR", "codelist_name": "CLL Transformation to More Agressive", "codelist_code": "AZC02679"}, "CM.CMCAT": {"sdtm_domain": "CM", "sdtm_variable": "CMCAT", "sdtm_label": "Category for Medication", "codelist": "CMCAT", "codelist_name": "Category for Medication", "codelist_code": "AZC00377"}, "SUPPCM.CMDVCE": {"sdtm_domain": "SUPPCM", "sdtm_variable": "CMDVCE", "sdtm_label": "Device", "codelist": "CMDVCE", "codelist_name": "Device", "codelist_code": "AZC02394"}, "CM.CMENTPT": {"sdtm_domain": "CM", "sdtm_variable": "CMENTPT", "sdtm_label": "End Reference Time Point", "codelist": "CMENTPT", "codelist_name": "End Reference Time Point", "codelist_code": "AZC00378"}, "CM.CMINDC": {"sdtm_domain": "CM", "sdtm_variable": "CMINDC", "sdtm_label": "Indication", "codelist": "CMINDC", "codelist_name": "Indication", "codelist_code": "AZC00380"}, "SUPPCM.CMPSTRGU": {"sdtm_domain": "SUPPCM", "sdtm_variable": "CMPSTRGU", "sdtm_label": "Pharmaceutical Strength Units", "codelist": "CMPSTRGU", "codelist_name": "Pharmaceutical Strength Units", "codelist_code": "AZC02594"}, "SUPPCM.CMREAS": {"sdtm_domain": "SUPPCM", "sdtm_variable": "CMREAS", "sdtm_label": "Therapy Reason", "codelist": "CMREAS", "codelist_name": "Therapy Reason", "codelist_code": "AZC02513"}, "CM.CMRSDISC": {"sdtm_domain": "CM", "sdtm_variable": "CMRSDISC", "sdtm_label": "Reason the Intervention Was Discontinued", "codelist": "CMRSDISC", "codelist_name": "Reason the Intervention Was Discontinued", "codelist_code": "AZC02595"}, "CM.CMSCAT": {"sdtm_domain": "CM", "sdtm_variable": "CMSCAT", "sdtm_label": "Subcategory for Medication", "codelist": "CMSCAT", "codelist_name": "Subcategory for Medication", "codelist_code": "AZC00383"}, "CM.CMSTTPT": {"sdtm_domain": "CM", "sdtm_variable": "CMSTTPT", "sdtm_label": "Start Reference Time Point", "codelist": "CMSTTPT", "codelist_name": "Start Reference Time Point", "codelist_code": "AZC02596"}, "CM.CMTPT": {"sdtm_domain": "CM", "sdtm_variable": "CMTPT", "sdtm_label": "Planned Time Point Name", "codelist": "CMTPT", "codelist_name": "Planned Time Point Name", "codelist_code": "AZC02267"}, "SV.SVCNTMOD": {"sdtm_domain": "SV", "sdtm_variable": "SVCNTMOD", "sdtm_label": "Contact Mode", "codelist": "CNTMODE", "codelist_name": "Mode of Subject Contact", "codelist_code": "C171445"}, "SUPPMI.COLMTH": {"sdtm_domain": "SUPPMI", "sdtm_variable": "COLMTH", "sdtm_label": "Collection Method", "codelist": "COLMTH", "codelist_name": "Collection Method", "codelist_code": "AZC02514"}, "CP.CPCOLSRT": {"sdtm_domain": "CP", "sdtm_variable": "CPCOLSRT", "sdtm_label": "Collected Summary Result Type", "codelist": "COLSTYP", "codelist_name": "Collected Summarized Value Type Response", "codelist_code": "C177908"}, "LB.LBCOLSRT": {"sdtm_domain": "LB", "sdtm_variable": "LBCOLSRT", "sdtm_label": "Collected Summary Result Type", "codelist": "COLSTYP", "codelist_name": "Collected Summarized Value Type Response", "codelist_code": "C177908"}, "SUPPRS.CONFPROG": {"sdtm_domain": "SUPPRS", "sdtm_variable": "CONFPROG", "sdtm_label": "Confirmed Progression", "codelist": "CONFPROG", "codelist_name": "Confirmed Progression", "codelist_code": "AZC00387"}, "CO.COREF": {"sdtm_domain": "CO", "sdtm_variable": "COREF", "sdtm_label": "Comment Reference", "codelist": "COREF", "codelist_name": "Comment Reference", "codelist_code": "AZC02546"}, "CP.CPCAT": {"sdtm_domain": "CP", "sdtm_variable": "CPCAT", "sdtm_label": "Category", "codelist": "CPCAT", "codelist_name": "Category for Cell Phenotyping", "codelist_code": "C181171"}, "CP.CPLOC": {"sdtm_domain": "CP", "sdtm_variable": "CPLOC", "sdtm_label": "Location Used for the Measurement", "codelist": "CPLOC", "codelist_name": "Location Used for the Measurement", "codelist_code": "AZC02681"}, "CP.CPSCAT": {"sdtm_domain": "CP", "sdtm_variable": "CPSCAT", "sdtm_label": "Subcategory", "codelist": "CPSCAT", "codelist_name": "Subcategory", "codelist_code": "AZC02310"}, "CP.CPTEST": {"sdtm_domain": "CP", "sdtm_variable": "CPTEST", "sdtm_label": "Name of Measurement, Test or Examination", "codelist": "CPTEST", "codelist_name": "Cell Phenotyping Test Name", "codelist_code": "C181174"}, "CP.CPTESTCD": {"sdtm_domain": "CP", "sdtm_variable": "CPTESTCD", "sdtm_label": "Test or Examination Short Name", "codelist": "CPTESTCD", "codelist_name": "Cell Phenotyping Test Code", "codelist_code": "C181173"}, "SUPPPE.CTCGDIS": {"sdtm_domain": "SUPPPE", "sdtm_variable": "CTCGDIS", "sdtm_label": "Scan Changes Suggest xxxx", "codelist": "CTCGDIS", "codelist_name": "Scan Changes Suggest xxxx", "codelist_code": "AZC00389"}, "SUPPRE.CTPROTAQ": {"sdtm_domain": "SUPPRE", "sdtm_variable": "CTPROTAQ", "sdtm_label": "Acquisition CT Protocol", "codelist": "CTPROTAQ", "codelist_name": "Acquisition CT Protocol", "codelist_code": "AZC02598"}, "CV.CVCAT": {"sdtm_domain": "CV", "sdtm_variable": "CVCAT", "sdtm_label": "Category for Cardiovascular Test", "codelist": "CVCAT", "codelist_name": "Category for Cardiovascular Test", "codelist_code": "AZC00391"}, "CV.CVTEST": {"sdtm_domain": "CV", "sdtm_variable": "CVTEST", "sdtm_label": "Name of Cardiovascular Test", "codelist": "CVTEST", "codelist_name": "Cardiovascular Test Name", "codelist_code": "C101846"}, "CV.CVTESTCD": {"sdtm_domain": "CV", "sdtm_variable": "CVTESTCD", "sdtm_label": "Short Name of Cardiovascular Test", "codelist": "CVTESTCD", "codelist_name": "Cardiovascular Test Code", "codelist_code": "C101847"}, "SUPPCM.CXHSCT": {"sdtm_domain": "SUPPCM", "sdtm_variable": "CXHSCT", "sdtm_label": "Concomitant HSCT", "codelist": "CXHSCT", "codelist_name": "Concomitant HSCT", "codelist_code": "AZC02600"}, "SUPPCM.CXINTRSN": {"sdtm_domain": "SUPPCM", "sdtm_variable": "CXINTRSN", "sdtm_label": "Reason for Interruptions", "codelist": "CXINTRSN", "codelist_name": "Reason for Interruptions", "codelist_code": "AZC00393"}, "SUPPCM.CXLATEAL": {"sdtm_domain": "SUPPCM", "sdtm_variable": "CXLATEAL", "sdtm_label": "Radiotherapy Site/Region Laterality", "codelist": "CXLATEAL", "codelist_name": "Radiotherapy Site/Region Laterality", "codelist_code": "AZC00394"}, "SUPPCM.CXPLATSN": {"sdtm_domain": "SUPPCM", "sdtm_variable": "CXPLATSN", "sdtm_label": "Classification of Platinum Sensitivity", "codelist": "CXPLATSN", "codelist_name": "Classification of Platinum Sensitivity", "codelist_code": "AZC00395"}, "SUPPCM.CXRATEC": {"sdtm_domain": "SUPPCM", "sdtm_variable": "CXRATEC", "sdtm_label": "Radiotherapy Technique", "codelist": "CXRATEC", "codelist_name": "Radiotherapy Technique", "codelist_code": "AZC00396"}, "SUPPCM.CXRATYP": {"sdtm_domain": "SUPPCM", "sdtm_variable": "CXRATYP", "sdtm_label": "Type of Radiotherapy", "codelist": "CXRATYP", "codelist_name": "Type of Radiotherapy", "codelist_code": "AZC00397"}, "SUPPCM.CXREGION": {"sdtm_domain": "SUPPCM", "sdtm_variable": "CXREGION", "sdtm_label": "Radiotherapy Site/Region Grouping", "codelist": "CXREGION", "codelist_name": "Radiotherapy Site/Region Grouping", "codelist_code": "AZC00398"}, "SUPPCM.CXTRTST": {"sdtm_domain": "SUPPCM", "sdtm_variable": "CXTRTST", "sdtm_label": "Treatment Status", "codelist": "CXTRTST", "codelist_name": "Treatment Status", "codelist_code": "AZC00026"}, "DA.DATEST": {"sdtm_domain": "DA", "sdtm_variable": "DATEST", "sdtm_label": "Name of Accountability Assessment", "codelist": "DATEST", "codelist_name": "Drug Accountability Test Name", "codelist_code": "C78731"}, "DA.DATESTCD": {"sdtm_domain": "DA", "sdtm_variable": "DATESTCD", "sdtm_label": "Short Name of Accountability Assessment", "codelist": "DATESTCD", "codelist_name": "Drug Accountability Test Code", "codelist_code": "C78732"}, "SUPPRE.DDELSYS": {"sdtm_domain": "SUPPRE", "sdtm_variable": "DDELSYS", "sdtm_label": "Daytime Delivery System", "codelist": "DDELSYS", "codelist_name": "Daytime Delivery System", "codelist_code": "AZC00400"}, "DD.DDRESCAT": {"sdtm_domain": "DD", "sdtm_variable": "DDRESCAT", "sdtm_label": "Result Category", "codelist": "DDRESCAT", "codelist_name": "Result Category", "codelist_code": "AZC00401"}, "AE.AEACNDEV": {"sdtm_domain": "AE", "sdtm_variable": "AEACNDEV", "sdtm_label": "Action Taken with Device", "codelist": "DEACNDEV", "codelist_name": "Device Events Action Taken with Device", "codelist_code": "C111110"}, "DE.DEACNDEV": {"sdtm_domain": "DE", "sdtm_variable": "DEACNDEV", "sdtm_label": "Action Taken with Device", "codelist": "DEACNDEV", "codelist_name": "Device Events Action Taken with Device", "codelist_code": "C111110"}, "DE.DECAT": {"sdtm_domain": "DE", "sdtm_variable": "DECAT", "sdtm_label": "Category of Device Event", "codelist": "DECAT", "codelist_name": "Category of Device Events", "codelist_code": "C111109"}, "DE.DEOUT": {"sdtm_domain": "DE", "sdtm_variable": "DEOUT", "sdtm_label": "Outcome of Event", "codelist": "DEOUT", "codelist_name": "Outcome of Event", "codelist_code": "AZC02473"}, "DE.DEREL": {"sdtm_domain": "DE", "sdtm_variable": "DEREL", "sdtm_label": "Causality", "codelist": "DEREL", "codelist_name": "Causality", "codelist_code": "AZC02475"}, "DE.DESCAT": {"sdtm_domain": "DE", "sdtm_variable": "DESCAT", "sdtm_label": "Subcategory of Device Event", "codelist": "DESCAT", "codelist_name": "Subcategory of Device Event", "codelist_code": "AZC02476"}, "DE.DESER": {"sdtm_domain": "DE", "sdtm_variable": "DESER", "sdtm_label": "Serious Event", "codelist": "DESER", "codelist_name": "Serious Event", "codelist_code": "AZC02477"}, "SUPPQS.DEVPERS": {"sdtm_domain": "SUPPQS", "sdtm_variable": "DEVPERS", "sdtm_label": "Person Performing Injection", "codelist": "DEVPERS", "codelist_name": "Person Performing Injection", "codelist_code": "AZC00404"}, "TS.TSVCDREF": {"sdtm_domain": "TS", "sdtm_variable": "TSVCDREF", "sdtm_label": "Name of the Reference Terminology", "codelist": "DICTNAM", "codelist_name": "Dictionary Name", "codelist_code": "C66788"}, "SUPPCM.DIDPLIN": {"sdtm_domain": "SUPPCM", "sdtm_variable": "DIDPLIN", "sdtm_label": "Disease Progression on This Line", "codelist": "DIDPLIN", "codelist_name": "Disease Progression on This Line", "codelist_code": "AZC02685"}, "SUPPCM.DIGRT": {"sdtm_domain": "SUPPCM", "sdtm_variable": "DIGRT", "sdtm_label": "Daily Image Guidance (IGRT)", "codelist": "DIGRT", "codelist_name": "Daily Image Guidance (IGRT)", "codelist_code": "AZC00406"}, "DI.DIPARM": {"sdtm_domain": "DI", "sdtm_variable": "DIPARM", "sdtm_label": "Device Identifier Element Name", "codelist": "DIPARM", "codelist_name": "Device Identifier Long Name", "codelist_code": "C106480"}, "DI.DIPARMCD": {"sdtm_domain": "DI", "sdtm_variable": "DIPARMCD", "sdtm_label": "Device Identifier Element Short Name", "codelist": "DIPARMCD", "codelist_name": "Device Identifier Short Name", "codelist_code": "C106481"}, "CV.CVDIR": {"sdtm_domain": "CV", "sdtm_variable": "CVDIR", "sdtm_label": "Directionality", "codelist": "DIR", "codelist_name": "Directionality", "codelist_code": "C99074"}, "EC.ECDIR": {"sdtm_domain": "EC", "sdtm_variable": "ECDIR", "sdtm_label": "Directionality", "codelist": "DIR", "codelist_name": "Directionality", "codelist_code": "C99074"}, "EX.EXDIR": {"sdtm_domain": "EX", "sdtm_variable": "EXDIR", "sdtm_label": "Directionality", "codelist": "DIR", "codelist_name": "Directionality", "codelist_code": "C99074"}, "MB.MBDIR": {"sdtm_domain": "MB", "sdtm_variable": "MBDIR", "sdtm_label": "Directionality", "codelist": "DIR", "codelist_name": "Directionality", "codelist_code": "C99074"}, "MI.MIDIR": {"sdtm_domain": "MI", "sdtm_variable": "MIDIR", "sdtm_label": "Specimen Directionality within Subject", "codelist": "DIR", "codelist_name": "Directionality", "codelist_code": "C99074"}, "MK.MKDIR": {"sdtm_domain": "MK", "sdtm_variable": "MKDIR", "sdtm_label": "Directionality", "codelist": "DIR", "codelist_name": "Directionality", "codelist_code": "C99074"}, "MO.MODIR": {"sdtm_domain": "MO", "sdtm_variable": "MODIR", "sdtm_label": "Specimen Directionality within Subject", "codelist": "DIR", "codelist_name": "Directionality", "codelist_code": "C99074"}, "MS.MSDIR": {"sdtm_domain": "MS", "sdtm_variable": "MSDIR", "sdtm_label": "Directionality", "codelist": "DIR", "codelist_name": "Directionality", "codelist_code": "C99074"}, "NV.NVDIR": {"sdtm_domain": "NV", "sdtm_variable": "NVDIR", "sdtm_label": "Directionality", "codelist": "DIR", "codelist_name": "Directionality", "codelist_code": "C99074"}, "OE.OEDIR": {"sdtm_domain": "OE", "sdtm_variable": "OEDIR", "sdtm_label": "Directionality", "codelist": "DIR", "codelist_name": "Directionality", "codelist_code": "C99074"}, "PR.PRDIR": {"sdtm_domain": "PR", "sdtm_variable": "PRDIR", "sdtm_label": "Directionality", "codelist": "DIR", "codelist_name": "Directionality", "codelist_code": "C99074"}, "RE.REDIR": {"sdtm_domain": "RE", "sdtm_variable": "REDIR", "sdtm_label": "Directionality", "codelist": "DIR", "codelist_name": "Directionality", "codelist_code": "C99074"}, "RS.RSDIR": {"sdtm_domain": "RS", "sdtm_variable": "RSDIR", "sdtm_label": "Directionality", "codelist": "DIR", "codelist_name": "Directionality", "codelist_code": "C99074"}, "TU.TUDIR": {"sdtm_domain": "TU", "sdtm_variable": "TUDIR", "sdtm_label": "Directionality", "codelist": "DIR", "codelist_name": "Directionality", "codelist_code": "C99074"}, "UR.URDIR": {"sdtm_domain": "UR", "sdtm_variable": "URDIR", "sdtm_label": "Directionality", "codelist": "DIR", "codelist_name": "Directionality", "codelist_code": "C99074"}, "AE.DOMAIN": {"sdtm_domain": "AE", "sdtm_variable": "DOMAIN", "sdtm_label": "Domain Abbreviation", "codelist": "DOMAIN", "codelist_name": "SDTM Domain Abbreviation", "codelist_code": "C66734"}, "AG.DOMAIN": {"sdtm_domain": "AG", "sdtm_variable": "DOMAIN", "sdtm_label": "Domain Abbreviation", "codelist": "DOMAIN", "codelist_name": "SDTM Domain Abbreviation", "codelist_code": "C66734"}, "BE.DOMAIN": {"sdtm_domain": "BE", "sdtm_variable": "DOMAIN", "sdtm_label": "Domain Abbreviation", "codelist": "DOMAIN", "codelist_name": "SDTM Domain Abbreviation", "codelist_code": "C66734"}, "BS.DOMAIN": {"sdtm_domain": "BS", "sdtm_variable": "DOMAIN", "sdtm_label": "Domain Abbreviation", "codelist": "DOMAIN", "codelist_name": "SDTM Domain Abbreviation", "codelist_code": "C66734"}, "CE.DOMAIN": {"sdtm_domain": "CE", "sdtm_variable": "DOMAIN", "sdtm_label": "Domain Abbreviation", "codelist": "DOMAIN", "codelist_name": "SDTM Domain Abbreviation", "codelist_code": "C66734"}, "CM.DOMAIN": {"sdtm_domain": "CM", "sdtm_variable": "DOMAIN", "sdtm_label": "Domain Abbreviation", "codelist": "DOMAIN", "codelist_name": "SDTM Domain Abbreviation", "codelist_code": "C66734"}, "CO.DOMAIN": {"sdtm_domain": "CO", "sdtm_variable": "DOMAIN", "sdtm_label": "Domain Abbreviation", "codelist": "DOMAIN", "codelist_name": "SDTM Domain Abbreviation", "codelist_code": "C66734"}, "CO.RDOMAIN": {"sdtm_domain": "CO", "sdtm_variable": "RDOMAIN", "sdtm_label": "Related Domain Abbreviation", "codelist": "DOMAIN", "codelist_name": "SDTM Domain Abbreviation", "codelist_code": "C66734"}, "CP.DOMAIN": {"sdtm_domain": "CP", "sdtm_variable": "DOMAIN", "sdtm_label": "Domain Abbreviation", "codelist": "DOMAIN", "codelist_name": "SDTM Domain Abbreviation", "codelist_code": "C66734"}, "CV.DOMAIN": {"sdtm_domain": "CV", "sdtm_variable": "DOMAIN", "sdtm_label": "Domain Abbreviation", "codelist": "DOMAIN", "codelist_name": "SDTM Domain Abbreviation", "codelist_code": "C66734"}, "DA.DOMAIN": {"sdtm_domain": "DA", "sdtm_variable": "DOMAIN", "sdtm_label": "Domain Abbreviation", "codelist": "DOMAIN", "codelist_name": "SDTM Domain Abbreviation", "codelist_code": "C66734"}, "DD.DOMAIN": {"sdtm_domain": "DD", "sdtm_variable": "DOMAIN", "sdtm_label": "Domain Abbreviation", "codelist": "DOMAIN", "codelist_name": "SDTM Domain Abbreviation", "codelist_code": "C66734"}, "DE.DOMAIN": {"sdtm_domain": "DE", "sdtm_variable": "DOMAIN", "sdtm_label": "Domain Abbreviation", "codelist": "DOMAIN", "codelist_name": "SDTM Domain Abbreviation", "codelist_code": "C66734"}, "DI.DOMAIN": {"sdtm_domain": "DI", "sdtm_variable": "DOMAIN", "sdtm_label": "Domain Abbreviation", "codelist": "DOMAIN", "codelist_name": "SDTM Domain Abbreviation", "codelist_code": "C66734"}, "DM.DOMAIN": {"sdtm_domain": "DM", "sdtm_variable": "DOMAIN", "sdtm_label": "Domain Abbreviation", "codelist": "DOMAIN", "codelist_name": "SDTM Domain Abbreviation", "codelist_code": "C66734"}, "DO.DOMAIN": {"sdtm_domain": "DO", "sdtm_variable": "DOMAIN", "sdtm_label": "Domain Abbreviation", "codelist": "DOMAIN", "codelist_name": "SDTM Domain Abbreviation", "codelist_code": "C66734"}, "DR.DOMAIN": {"sdtm_domain": "DR", "sdtm_variable": "DOMAIN", "sdtm_label": "Domain Abbreviation", "codelist": "DOMAIN", "codelist_name": "SDTM Domain Abbreviation", "codelist_code": "C66734"}, "DS.DOMAIN": {"sdtm_domain": "DS", "sdtm_variable": "DOMAIN", "sdtm_label": "Domain Abbreviation", "codelist": "DOMAIN", "codelist_name": "SDTM Domain Abbreviation", "codelist_code": "C66734"}, "DT.DOMAIN": {"sdtm_domain": "DT", "sdtm_variable": "DOMAIN", "sdtm_label": "Domain Abbreviation", "codelist": "DOMAIN", "codelist_name": "SDTM Domain Abbreviation", "codelist_code": "C66734"}, "DU.DOMAIN": {"sdtm_domain": "DU", "sdtm_variable": "DOMAIN", "sdtm_label": "Domain Abbreviation", "codelist": "DOMAIN", "codelist_name": "SDTM Domain Abbreviation", "codelist_code": "C66734"}, "DV.DOMAIN": {"sdtm_domain": "DV", "sdtm_variable": "DOMAIN", "sdtm_label": "Domain Abbreviation", "codelist": "DOMAIN", "codelist_name": "SDTM Domain Abbreviation", "codelist_code": "C66734"}, "DX.DOMAIN": {"sdtm_domain": "DX", "sdtm_variable": "DOMAIN", "sdtm_label": "Domain Abbreviation", "codelist": "DOMAIN", "codelist_name": "SDTM Domain Abbreviation", "codelist_code": "C66734"}, "EC.DOMAIN": {"sdtm_domain": "EC", "sdtm_variable": "DOMAIN", "sdtm_label": "Domain Abbreviation", "codelist": "DOMAIN", "codelist_name": "SDTM Domain Abbreviation", "codelist_code": "C66734"}, "EG.DOMAIN": {"sdtm_domain": "EG", "sdtm_variable": "DOMAIN", "sdtm_label": "Domain Abbreviation", "codelist": "DOMAIN", "codelist_name": "SDTM Domain Abbreviation", "codelist_code": "C66734"}, "EX.DOMAIN": {"sdtm_domain": "EX", "sdtm_variable": "DOMAIN", "sdtm_label": "Domain Abbreviation", "codelist": "DOMAIN", "codelist_name": "SDTM Domain Abbreviation", "codelist_code": "C66734"}, "FA.DOMAIN": {"sdtm_domain": "FA", "sdtm_variable": "DOMAIN", "sdtm_label": "Domain Abbreviation", "codelist": "DOMAIN", "codelist_name": "SDTM Domain Abbreviation", "codelist_code": "C66734"}, "FAAE.DOMAIN": {"sdtm_domain": "FAAE", "sdtm_variable": "DOMAIN", "sdtm_label": "Domain Abbreviation", "codelist": "DOMAIN", "codelist_name": "SDTM Domain Abbreviation", "codelist_code": "C66734"}, "FACE.DOMAIN": {"sdtm_domain": "FACE", "sdtm_variable": "DOMAIN", "sdtm_label": "Domain Abbreviation", "codelist": "DOMAIN", "codelist_name": "SDTM Domain Abbreviation", "codelist_code": "C66734"}, "FAEX.DOMAIN": {"sdtm_domain": "FAEX", "sdtm_variable": "DOMAIN", "sdtm_label": "Domain Abbreviation", "codelist": "DOMAIN", "codelist_name": "SDTM Domain Abbreviation", "codelist_code": "C66734"}, "FAHO.DOMAIN": {"sdtm_domain": "FAHO", "sdtm_variable": "DOMAIN", "sdtm_label": "Domain Abbreviation", "codelist": "DOMAIN", "codelist_name": "SDTM Domain Abbreviation", "codelist_code": "C66734"}, "FAMH.DOMAIN": {"sdtm_domain": "FAMH", "sdtm_variable": "DOMAIN", "sdtm_label": "Domain Abbreviation", "codelist": "DOMAIN", "codelist_name": "SDTM Domain Abbreviation", "codelist_code": "C66734"}, "FAPR.DOMAIN": {"sdtm_domain": "FAPR", "sdtm_variable": "DOMAIN", "sdtm_label": "Domain Abbreviation", "codelist": "DOMAIN", "codelist_name": "SDTM Domain Abbreviation", "codelist_code": "C66734"}, "FAYB.DOMAIN": {"sdtm_domain": "FAYB", "sdtm_variable": "DOMAIN", "sdtm_label": "Domain Abbreviation", "codelist": "DOMAIN", "codelist_name": "SDTM Domain Abbreviation", "codelist_code": "C66734"}, "FAYM.DOMAIN": {"sdtm_domain": "FAYM", "sdtm_variable": "DOMAIN", "sdtm_label": "Domain Abbreviation", "codelist": "DOMAIN", "codelist_name": "SDTM Domain Abbreviation", "codelist_code": "C66734"}, "FT.DOMAIN": {"sdtm_domain": "FT", "sdtm_variable": "DOMAIN", "sdtm_label": "Domain Abbreviation", "codelist": "DOMAIN", "codelist_name": "SDTM Domain Abbreviation", "codelist_code": "C66734"}, "GF.DOMAIN": {"sdtm_domain": "GF", "sdtm_variable": "DOMAIN", "sdtm_label": "Domain Abbreviation", "codelist": "DOMAIN", "codelist_name": "SDTM Domain Abbreviation", "codelist_code": "C66734"}, "HO.DOMAIN": {"sdtm_domain": "HO", "sdtm_variable": "DOMAIN", "sdtm_label": "Domain Abbreviation", "codelist": "DOMAIN", "codelist_name": "SDTM Domain Abbreviation", "codelist_code": "C66734"}, "IE.DOMAIN": {"sdtm_domain": "IE", "sdtm_variable": "DOMAIN", "sdtm_label": "Domain Abbreviation", "codelist": "DOMAIN", "codelist_name": "SDTM Domain Abbreviation", "codelist_code": "C66734"}, "IS.DOMAIN": {"sdtm_domain": "IS", "sdtm_variable": "DOMAIN", "sdtm_label": "Domain Abbreviation", "codelist": "DOMAIN", "codelist_name": "SDTM Domain Abbreviation", "codelist_code": "C66734"}, "LB.DOMAIN": {"sdtm_domain": "LB", "sdtm_variable": "DOMAIN", "sdtm_label": "Domain Abbreviation", "codelist": "DOMAIN", "codelist_name": "SDTM Domain Abbreviation", "codelist_code": "C66734"}, "LC.DOMAIN": {"sdtm_domain": "LC", "sdtm_variable": "DOMAIN", "sdtm_label": "Domain Abbreviation", "codelist": "DOMAIN", "codelist_name": "SDTM Domain Abbreviation", "codelist_code": "C66734"}, "MB.DOMAIN": {"sdtm_domain": "MB", "sdtm_variable": "DOMAIN", "sdtm_label": "Domain Abbreviation", "codelist": "DOMAIN", "codelist_name": "SDTM Domain Abbreviation", "codelist_code": "C66734"}, "MH.DOMAIN": {"sdtm_domain": "MH", "sdtm_variable": "DOMAIN", "sdtm_label": "Domain Abbreviation", "codelist": "DOMAIN", "codelist_name": "SDTM Domain Abbreviation", "codelist_code": "C66734"}, "MI.DOMAIN": {"sdtm_domain": "MI", "sdtm_variable": "DOMAIN", "sdtm_label": "Domain Abbreviation", "codelist": "DOMAIN", "codelist_name": "SDTM Domain Abbreviation", "codelist_code": "C66734"}, "MK.DOMAIN": {"sdtm_domain": "MK", "sdtm_variable": "DOMAIN", "sdtm_label": "Domain Abbreviation", "codelist": "DOMAIN", "codelist_name": "SDTM Domain Abbreviation", "codelist_code": "C66734"}, "ML.DOMAIN": {"sdtm_domain": "ML", "sdtm_variable": "DOMAIN", "sdtm_label": "Domain Abbreviation", "codelist": "DOMAIN", "codelist_name": "SDTM Domain Abbreviation", "codelist_code": "C66734"}, "MO.DOMAIN": {"sdtm_domain": "MO", "sdtm_variable": "DOMAIN", "sdtm_label": "Domain Abbreviation", "codelist": "DOMAIN", "codelist_name": "SDTM Domain Abbreviation", "codelist_code": "C66734"}, "MS.DOMAIN": {"sdtm_domain": "MS", "sdtm_variable": "DOMAIN", "sdtm_label": "Domain Abbreviation", "codelist": "DOMAIN", "codelist_name": "SDTM Domain Abbreviation", "codelist_code": "C66734"}, "NV.DOMAIN": {"sdtm_domain": "NV", "sdtm_variable": "DOMAIN", "sdtm_label": "Domain Abbreviation", "codelist": "DOMAIN", "codelist_name": "SDTM Domain Abbreviation", "codelist_code": "C66734"}, "OE.DOMAIN": {"sdtm_domain": "OE", "sdtm_variable": "DOMAIN", "sdtm_label": "Domain Abbreviation", "codelist": "DOMAIN", "codelist_name": "SDTM Domain Abbreviation", "codelist_code": "C66734"}, "OI.DOMAIN": {"sdtm_domain": "OI", "sdtm_variable": "DOMAIN", "sdtm_label": "Domain Abbreviation", "codelist": "DOMAIN", "codelist_name": "SDTM Domain Abbreviation", "codelist_code": "C66734"}, "PB.DOMAIN": {"sdtm_domain": "PB", "sdtm_variable": "DOMAIN", "sdtm_label": "Domain Abbreviation", "codelist": "DOMAIN", "codelist_name": "SDTM Domain Abbreviation", "codelist_code": "C66734"}, "PC.DOMAIN": {"sdtm_domain": "PC", "sdtm_variable": "DOMAIN", "sdtm_label": "Domain Abbreviation", "codelist": "DOMAIN", "codelist_name": "SDTM Domain Abbreviation", "codelist_code": "C66734"}, "PE.DOMAIN": {"sdtm_domain": "PE", "sdtm_variable": "DOMAIN", "sdtm_label": "Domain Abbreviation", "codelist": "DOMAIN", "codelist_name": "SDTM Domain Abbreviation", "codelist_code": "C66734"}, "PF.DOMAIN": {"sdtm_domain": "PF", "sdtm_variable": "DOMAIN", "sdtm_label": "Domain Abbreviation", "codelist": "DOMAIN", "codelist_name": "SDTM Domain Abbreviation", "codelist_code": "C66734"}, "PG.DOMAIN": {"sdtm_domain": "PG", "sdtm_variable": "DOMAIN", "sdtm_label": "Domain Abbreviation", "codelist": "DOMAIN", "codelist_name": "SDTM Domain Abbreviation", "codelist_code": "C66734"}, "PP.DOMAIN": {"sdtm_domain": "PP", "sdtm_variable": "DOMAIN", "sdtm_label": "Domain Abbreviation", "codelist": "DOMAIN", "codelist_name": "SDTM Domain Abbreviation", "codelist_code": "C66734"}, "PR.DOMAIN": {"sdtm_domain": "PR", "sdtm_variable": "DOMAIN", "sdtm_label": "Domain Abbreviation", "codelist": "DOMAIN", "codelist_name": "SDTM Domain Abbreviation", "codelist_code": "C66734"}, "QS.DOMAIN": {"sdtm_domain": "QS", "sdtm_variable": "DOMAIN", "sdtm_label": "Domain Abbreviation", "codelist": "DOMAIN", "codelist_name": "SDTM Domain Abbreviation", "codelist_code": "C66734"}, "RE.DOMAIN": {"sdtm_domain": "RE", "sdtm_variable": "DOMAIN", "sdtm_label": "Domain Abbreviation", "codelist": "DOMAIN", "codelist_name": "SDTM Domain Abbreviation", "codelist_code": "C66734"}, "RELREC.RDOMAIN": {"sdtm_domain": "RELREC", "sdtm_variable": "RDOMAIN", "sdtm_label": "Related Domain Abbreviation", "codelist": "DOMAIN", "codelist_name": "SDTM Domain Abbreviation", "codelist_code": "C66734"}, "RP.DOMAIN": {"sdtm_domain": "RP", "sdtm_variable": "DOMAIN", "sdtm_label": "Domain Abbreviation", "codelist": "DOMAIN", "codelist_name": "SDTM Domain Abbreviation", "codelist_code": "C66734"}, "RS.DOMAIN": {"sdtm_domain": "RS", "sdtm_variable": "DOMAIN", "sdtm_label": "Domain Abbreviation", "codelist": "DOMAIN", "codelist_name": "SDTM Domain Abbreviation", "codelist_code": "C66734"}, "SB.DOMAIN": {"sdtm_domain": "SB", "sdtm_variable": "DOMAIN", "sdtm_label": "Domain Abbreviation", "codelist": "DOMAIN", "codelist_name": "SDTM Domain Abbreviation", "codelist_code": "C66734"}, "SC.DOMAIN": {"sdtm_domain": "SC", "sdtm_variable": "DOMAIN", "sdtm_label": "Domain Abbreviation", "codelist": "DOMAIN", "codelist_name": "SDTM Domain Abbreviation", "codelist_code": "C66734"}, "SE.DOMAIN": {"sdtm_domain": "SE", "sdtm_variable": "DOMAIN", "sdtm_label": "Domain Abbreviation", "codelist": "DOMAIN", "codelist_name": "SDTM Domain Abbreviation", "codelist_code": "C66734"}, "SM.DOMAIN": {"sdtm_domain": "SM", "sdtm_variable": "DOMAIN", "sdtm_label": "Domain", "codelist": "DOMAIN", "codelist_name": "SDTM Domain Abbreviation", "codelist_code": "C66734"}, "SR.DOMAIN": {"sdtm_domain": "SR", "sdtm_variable": "DOMAIN", "sdtm_label": "Domain Abbreviation", "codelist": "DOMAIN", "codelist_name": "SDTM Domain Abbreviation", "codelist_code": "C66734"}, "SS.DOMAIN": {"sdtm_domain": "SS", "sdtm_variable": "DOMAIN", "sdtm_label": "Domain Abbreviation", "codelist": "DOMAIN", "codelist_name": "SDTM Domain Abbreviation", "codelist_code": "C66734"}, "SU.DOMAIN": {"sdtm_domain": "SU", "sdtm_variable": "DOMAIN", "sdtm_label": "Domain Abbreviation", "codelist": "DOMAIN", "codelist_name": "SDTM Domain Abbreviation", "codelist_code": "C66734"}, "SUPPQUAL.RDOMAIN": {"sdtm_domain": "SUPPQUAL", "sdtm_variable": "RDOMAIN", "sdtm_label": "Related Domain Abbreviation", "codelist": "DOMAIN", "codelist_name": "SDTM Domain Abbreviation", "codelist_code": "C66734"}, "SV.DOMAIN": {"sdtm_domain": "SV", "sdtm_variable": "DOMAIN", "sdtm_label": "Domain Abbreviation", "codelist": "DOMAIN", "codelist_name": "SDTM Domain Abbreviation", "codelist_code": "C66734"}, "TA.DOMAIN": {"sdtm_domain": "TA", "sdtm_variable": "DOMAIN", "sdtm_label": "Domain Abbreviation", "codelist": "DOMAIN", "codelist_name": "SDTM Domain Abbreviation", "codelist_code": "C66734"}, "TD.DOMAIN": {"sdtm_domain": "TD", "sdtm_variable": "DOMAIN", "sdtm_label": "Domain Abbreviation", "codelist": "DOMAIN", "codelist_name": "SDTM Domain Abbreviation", "codelist_code": "C66734"}, "TE.DOMAIN": {"sdtm_domain": "TE", "sdtm_variable": "DOMAIN", "sdtm_label": "Domain Abbreviation", "codelist": "DOMAIN", "codelist_name": "SDTM Domain Abbreviation", "codelist_code": "C66734"}, "TI.DOMAIN": {"sdtm_domain": "TI", "sdtm_variable": "DOMAIN", "sdtm_label": "Domain Abbreviation", "codelist": "DOMAIN", "codelist_name": "SDTM Domain Abbreviation", "codelist_code": "C66734"}, "TM.DOMAIN": {"sdtm_domain": "TM", "sdtm_variable": "DOMAIN", "sdtm_label": "Domain", "codelist": "DOMAIN", "codelist_name": "SDTM Domain Abbreviation", "codelist_code": "C66734"}, "TR.DOMAIN": {"sdtm_domain": "TR", "sdtm_variable": "DOMAIN", "sdtm_label": "Domain Abbreviation", "codelist": "DOMAIN", "codelist_name": "SDTM Domain Abbreviation", "codelist_code": "C66734"}, "TS.DOMAIN": {"sdtm_domain": "TS", "sdtm_variable": "DOMAIN", "sdtm_label": "Domain Abbreviation", "codelist": "DOMAIN", "codelist_name": "SDTM Domain Abbreviation", "codelist_code": "C66734"}, "TU.DOMAIN": {"sdtm_domain": "TU", "sdtm_variable": "DOMAIN", "sdtm_label": "Domain Abbreviation", "codelist": "DOMAIN", "codelist_name": "SDTM Domain Abbreviation", "codelist_code": "C66734"}, "TV.DOMAIN": {"sdtm_domain": "TV", "sdtm_variable": "DOMAIN", "sdtm_label": "Domain Abbreviation", "codelist": "DOMAIN", "codelist_name": "SDTM Domain Abbreviation", "codelist_code": "C66734"}, "UR.DOMAIN": {"sdtm_domain": "UR", "sdtm_variable": "DOMAIN", "sdtm_label": "Domain Abbreviation", "codelist": "DOMAIN", "codelist_name": "SDTM Domain Abbreviation", "codelist_code": "C66734"}, "VR.DOMAIN": {"sdtm_domain": "VR", "sdtm_variable": "DOMAIN", "sdtm_label": "Domain Abbreviation", "codelist": "DOMAIN", "codelist_name": "SDTM Domain Abbreviation", "codelist_code": "C66734"}, "VS.DOMAIN": {"sdtm_domain": "VS", "sdtm_variable": "DOMAIN", "sdtm_label": "Domain Abbreviation", "codelist": "DOMAIN", "codelist_name": "SDTM Domain Abbreviation", "codelist_code": "C66734"}, "XC.DOMAIN": {"sdtm_domain": "XC", "sdtm_variable": "DOMAIN", "sdtm_label": "Domain Abbreviation", "codelist": "DOMAIN", "codelist_name": "SDTM Domain Abbreviation", "codelist_code": "C66734"}, "YB.DOMAIN": {"sdtm_domain": "YB", "sdtm_variable": "DOMAIN", "sdtm_label": "Domain Abbreviation", "codelist": "DOMAIN", "codelist_name": "SDTM Domain Abbreviation", "codelist_code": "C66734"}, "YM.DOMAIN": {"sdtm_domain": "YM", "sdtm_variable": "DOMAIN", "sdtm_label": "Domain Abbreviation", "codelist": "DOMAIN", "codelist_name": "SDTM Domain Abbreviation", "codelist_code": "C66734"}, "ZC.DOMAIN": {"sdtm_domain": "ZC", "sdtm_variable": "DOMAIN", "sdtm_label": "Domain Abbreviation", "codelist": "DOMAIN", "codelist_name": "SDTM Domain Abbreviation", "codelist_code": "C66734"}, "DO.DOTEST": {"sdtm_domain": "DO", "sdtm_variable": "DOTEST", "sdtm_label": "Device Property Test Name", "codelist": "DOTEST", "codelist_name": "Device Properties Test Name", "codelist_code": "C111112"}, "DO.DOTESTCD": {"sdtm_domain": "DO", "sdtm_variable": "DOTESTCD", "sdtm_label": "Device Property Short Name", "codelist": "DOTESTCD", "codelist_name": "Device Properties Test Code", "codelist_code": "C111111"}, "DS.DSCAT": {"sdtm_domain": "DS", "sdtm_variable": "DSCAT", "sdtm_label": "Category for Disposition Event", "codelist": "DSCAT", "codelist_name": "Category of Disposition Event", "codelist_code": "C74558"}, "DS.DSSCAT": {"sdtm_domain": "DS", "sdtm_variable": "DSSCAT", "sdtm_label": "Subcategory for Disposition Event", "codelist": "DSSCAT", "codelist_name": "Subcategory for Disposition Event", "codelist_code": "C170443"}, "SUPPDS.DSSPRELI": {"sdtm_domain": "SUPPDS", "sdtm_variable": "DSSPRELI", "sdtm_label": "Global/Country Situation Relat Indicator", "codelist": "DSSPRELI", "codelist_name": "Global/Country Situation Relat Indicator", "codelist_code": "AZC00408"}, "DT.DTDECOD": {"sdtm_domain": "DT", "sdtm_variable": "DTDECOD", "sdtm_label": "Standardized Tracking Term", "codelist": "DTDECOD", "codelist_name": "Device Tracking and Disposition Event Dictionary Derived Term", "codelist_code": "C112037"}, "DD.DDTEST": {"sdtm_domain": "DD", "sdtm_variable": "DDTEST", "sdtm_label": "Death Detail Assessment Name", "codelist": "DTHDX", "codelist_name": "SDTM Death Diagnosis and Details Test Name", "codelist_code": "C116107"}, "DD.DDTESTCD": {"sdtm_domain": "DD", "sdtm_variable": "DDTESTCD", "sdtm_label": "Death Detail Assessment Short Name", "codelist": "DTHDXCD", "codelist_name": "SDTM Death Diagnosis and Details Test Code", "codelist_code": "C116108"}, "DT.DTPARTY": {"sdtm_domain": "DT", "sdtm_variable": "DTPARTY", "sdtm_label": "Party Responsible for the Device", "codelist": "DTPARTY", "codelist_name": "Party Responsible for the Device", "codelist_code": "AZC02479"}, "DU.DUTEST": {"sdtm_domain": "DU", "sdtm_variable": "DUTEST", "sdtm_label": "Device-In-Use Test Name", "codelist": "DUTEST", "codelist_name": "Device-In-Use Test Name", "codelist_code": "C106482"}, "DU.DUTESTCD": {"sdtm_domain": "DU", "sdtm_variable": "DUTESTCD", "sdtm_label": "Device-In-Use Test Short Name", "codelist": "DUTESTCD", "codelist_name": "Device-In-Use Test Code", "codelist_code": "C106483"}, "SUPPDV.DVCRELI": {"sdtm_domain": "SUPPDV", "sdtm_variable": "DVCRELI", "sdtm_label": "Global/Country Situation Relat Indicator", "codelist": "DVCRELI", "codelist_name": "Global/Country Situation Relat Indicator", "codelist_code": "AZC00409"}, "EC.ECADJ": {"sdtm_domain": "EC", "sdtm_variable": "ECADJ", "sdtm_label": "Reason for Dose Adjustment", "codelist": "ECADJ", "codelist_name": "Reason for Dose Adjustment", "codelist_code": "AZC00410"}, "SUPPEC.ECADPER": {"sdtm_domain": "SUPPEC", "sdtm_variable": "ECADPER", "sdtm_label": "Administration Performed by", "codelist": "ECADPER", "codelist_name": "Administration Performed by", "codelist_code": "AZC02315"}, "SUPPEC.ECAPRELI": {"sdtm_domain": "SUPPEC", "sdtm_variable": "ECAPRELI", "sdtm_label": "Glob/Countr Sit Relat Indicat, Act Taken", "codelist": "ECAPRELI", "codelist_name": "Glob/Countr Sit Relat Indicat, Act Taken", "codelist_code": "AZC02316"}, "EC.ECCAT": {"sdtm_domain": "EC", "sdtm_variable": "ECCAT", "sdtm_label": "Category of Treatment", "codelist": "ECCAT", "codelist_name": "Category of Treatment", "codelist_code": "AZC00411"}, "SUPPEC.ECDOSRCU": {"sdtm_domain": "SUPPEC", "sdtm_variable": "ECDOSRCU", "sdtm_label": "Reconstituted study drug unit", "codelist": "ECDOSRCU", "codelist_name": "Reconstituted study drug unit", "codelist_code": "AZC02318"}, "EC.ECENTPT": {"sdtm_domain": "EC", "sdtm_variable": "ECENTPT", "sdtm_label": "End Reference Time Point", "codelist": "ECENTPT", "codelist_name": "End Reference Time Point", "codelist_code": "AZC00412"}, "SUPPCV.ECIMAGEQ": {"sdtm_domain": "SUPPCV", "sdtm_variable": "ECIMAGEQ", "sdtm_label": "Image Quality Sufficient", "codelist": "ECIMAGEQ", "codelist_name": "Image Quality Sufficient", "codelist_code": "AZC00413"}, "EC.ECINDC": {"sdtm_domain": "EC", "sdtm_variable": "ECINDC", "sdtm_label": "Indication", "codelist": "ECINDC", "codelist_name": "Indication", "codelist_code": "AZC00414"}, "SUPPEC.ECINFS": {"sdtm_domain": "SUPPEC", "sdtm_variable": "ECINFS", "sdtm_label": "Infusion Site", "codelist": "ECINFS", "codelist_name": "Infusion Site", "codelist_code": "AZC02319"}, "SUPPEC.ECLPRELI": {"sdtm_domain": "SUPPEC", "sdtm_variable": "ECLPRELI", "sdtm_label": "Glob/Countr Sit Relat Indicat, Loc/Admin", "codelist": "ECLPRELI", "codelist_name": "Glob/Countr Sit Relat Indicat, Loc/Admin", "codelist_code": "AZC02320"}, "SUPPEC.ECSADPER": {"sdtm_domain": "SUPPEC", "sdtm_variable": "ECSADPER", "sdtm_label": "Admin. Perfr. by, Global/Country Situat", "codelist": "ECSADPER", "codelist_name": "Admin. Perfr. by, Global/Country Situat", "codelist_code": "AZC02322"}, "EC.ECSCAT": {"sdtm_domain": "EC", "sdtm_variable": "ECSCAT", "sdtm_label": "Subcategory of Treatment", "codelist": "ECSCAT", "codelist_name": "Subcategory of Treatment", "codelist_code": "AZC00416"}, "SUPPEC.ECSLOCST": {"sdtm_domain": "SUPPEC", "sdtm_variable": "ECSLOCST", "sdtm_label": "SD Locatio Status, Global/Country Situat", "codelist": "ECSLOCST", "codelist_name": "SD Locatio Status, Global/Country Situat", "codelist_code": "AZC02323"}, "EC.ECSTTPT": {"sdtm_domain": "EC", "sdtm_variable": "ECSTTPT", "sdtm_label": "Start Reference Time Point", "codelist": "ECSTTPT", "codelist_name": "Start Reference Time Point", "codelist_code": "AZC00417"}, "EC.ECTPT": {"sdtm_domain": "EC", "sdtm_variable": "ECTPT", "sdtm_label": "Planned Time Point Name", "codelist": "ECTPT", "codelist_name": "Planned Time Point Name", "codelist_code": "AZC00418"}, "EC.ECVAMTU": {"sdtm_domain": "EC", "sdtm_variable": "ECVAMTU", "sdtm_label": "Treatment Vehicle Amount Units", "codelist": "ECVAMTU", "codelist_name": "Treatment Vehicle Amount Units", "codelist_code": "AZC02325"}, "EG.EGCAT": {"sdtm_domain": "EG", "sdtm_variable": "EGCAT", "sdtm_label": "Category for ECG", "codelist": "EGCAT", "codelist_name": "Category for ECG", "codelist_code": "AZC00420"}, "EG.EGLEAD": {"sdtm_domain": "EG", "sdtm_variable": "EGLEAD", "sdtm_label": "Lead Location Used for Measurement", "codelist": "LOC", "codelist_name": "Anatomical Location", "codelist_code": "C74456"}, "EG.EGMETHOD": {"sdtm_domain": "EG", "sdtm_variable": "EGMETHOD", "sdtm_label": "Method of Test or Examination", "codelist": "EGMETHOD", "codelist_name": "ECG Test Method", "codelist_code": "C71151"}, "SUPPEG.EGQCTF": {"sdtm_domain": "SUPPEG", "sdtm_variable": "EGQCTF", "sdtm_label": "QTc Interval Fridericia > 470 ms", "codelist": "EGQCTF", "codelist_name": "QTc Interval Fridericia > 470 ms", "codelist_code": "AZC00421"}, "SUPPEG.EGQCTF1": {"sdtm_domain": "SUPPEG", "sdtm_variable": "EGQCTF1", "sdtm_label": "QTc Interval Fridericia > 500 ms", "codelist": "EGQCTF1", "codelist_name": "QTc Interval Fridericia > 500 ms", "codelist_code": "AZC00422"}, "EG.EGSCAT": {"sdtm_domain": "EG", "sdtm_variable": "EGSCAT", "sdtm_label": "Subcategory for ECG", "codelist": "EGSCAT", "codelist_name": "Subcategory for ECG", "codelist_code": "AZC02379"}, "EG.EGSTRESC": {"sdtm_domain": "EG", "sdtm_variable": "EGSTRESC", "sdtm_label": "Character Result/Finding in Std Format", "codelist": "EGSTRESC", "codelist_name": "ECG Result", "codelist_code": "C71150"}, "EG.EGTEST": {"sdtm_domain": "EG", "sdtm_variable": "EGTEST", "sdtm_label": "ECG Test or Examination Name", "codelist": "EGTEST", "codelist_name": "ECG Test Name", "codelist_code": "C71152"}, "EG.EGTESTCD": {"sdtm_domain": "EG", "sdtm_variable": "EGTESTCD", "sdtm_label": "ECG Test or Examination Short Name", "codelist": "EGTESTCD", "codelist_name": "ECG Test Code", "codelist_code": "C71153"}, "AE.EPOCH": {"sdtm_domain": "AE", "sdtm_variable": "EPOCH", "sdtm_label": "Epoch", "codelist": "EPOCH", "codelist_name": "Epoch", "codelist_code": "C99079"}, "AG.EPOCH": {"sdtm_domain": "AG", "sdtm_variable": "EPOCH", "sdtm_label": "Epoch", "codelist": "EPOCH", "codelist_name": "Epoch", "codelist_code": "C99079"}, "CE.EPOCH": {"sdtm_domain": "CE", "sdtm_variable": "EPOCH", "sdtm_label": "Epoch", "codelist": "EPOCH", "codelist_name": "Epoch", "codelist_code": "C99079"}, "CM.EPOCH": {"sdtm_domain": "CM", "sdtm_variable": "EPOCH", "sdtm_label": "Epoch", "codelist": "EPOCH", "codelist_name": "Epoch", "codelist_code": "C99079"}, "CP.EPOCH": {"sdtm_domain": "CP", "sdtm_variable": "EPOCH", "sdtm_label": "Epoch", "codelist": "EPOCH", "codelist_name": "Epoch", "codelist_code": "C99079"}, "CV.EPOCH": {"sdtm_domain": "CV", "sdtm_variable": "EPOCH", "sdtm_label": "Epoch", "codelist": "EPOCH", "codelist_name": "Epoch", "codelist_code": "C99079"}, "DA.EPOCH": {"sdtm_domain": "DA", "sdtm_variable": "EPOCH", "sdtm_label": "Epoch", "codelist": "EPOCH", "codelist_name": "Epoch", "codelist_code": "C99079"}, "DS.EPOCH": {"sdtm_domain": "DS", "sdtm_variable": "EPOCH", "sdtm_label": "Epoch", "codelist": "EPOCH", "codelist_name": "Epoch", "codelist_code": "C99079"}, "DV.EPOCH": {"sdtm_domain": "DV", "sdtm_variable": "EPOCH", "sdtm_label": "Epoch", "codelist": "EPOCH", "codelist_name": "Epoch", "codelist_code": "C99079"}, "EC.EPOCH": {"sdtm_domain": "EC", "sdtm_variable": "EPOCH", "sdtm_label": "Epoch", "codelist": "EPOCH", "codelist_name": "Epoch", "codelist_code": "C99079"}, "EG.EPOCH": {"sdtm_domain": "EG", "sdtm_variable": "EPOCH", "sdtm_label": "Epoch", "codelist": "EPOCH", "codelist_name": "Epoch", "codelist_code": "C99079"}, "EX.EPOCH": {"sdtm_domain": "EX", "sdtm_variable": "EPOCH", "sdtm_label": "Epoch", "codelist": "EPOCH", "codelist_name": "Epoch", "codelist_code": "C99079"}, "FA.EPOCH": {"sdtm_domain": "FA", "sdtm_variable": "EPOCH", "sdtm_label": "Epoch", "codelist": "EPOCH", "codelist_name": "Epoch", "codelist_code": "C99079"}, "FT.EPOCH": {"sdtm_domain": "FT", "sdtm_variable": "EPOCH", "sdtm_label": "Epoch", "codelist": "EPOCH", "codelist_name": "Epoch", "codelist_code": "C99079"}, "HO.EPOCH": {"sdtm_domain": "HO", "sdtm_variable": "EPOCH", "sdtm_label": "Epoch", "codelist": "EPOCH", "codelist_name": "Epoch", "codelist_code": "C99079"}, "IE.EPOCH": {"sdtm_domain": "IE", "sdtm_variable": "EPOCH", "sdtm_label": "Epoch", "codelist": "EPOCH", "codelist_name": "Epoch", "codelist_code": "C99079"}, "IS.EPOCH": {"sdtm_domain": "IS", "sdtm_variable": "EPOCH", "sdtm_label": "Epoch", "codelist": "EPOCH", "codelist_name": "Epoch", "codelist_code": "C99079"}, "LB.EPOCH": {"sdtm_domain": "LB", "sdtm_variable": "EPOCH", "sdtm_label": "Epoch", "codelist": "EPOCH", "codelist_name": "Epoch", "codelist_code": "C99079"}, "MB.EPOCH": {"sdtm_domain": "MB", "sdtm_variable": "EPOCH", "sdtm_label": "Epoch", "codelist": "EPOCH", "codelist_name": "Epoch", "codelist_code": "C99079"}, "MH.EPOCH": {"sdtm_domain": "MH", "sdtm_variable": "EPOCH", "sdtm_label": "Epoch", "codelist": "EPOCH", "codelist_name": "Epoch", "codelist_code": "C99079"}, "MI.EPOCH": {"sdtm_domain": "MI", "sdtm_variable": "EPOCH", "sdtm_label": "Epoch", "codelist": "EPOCH", "codelist_name": "Epoch", "codelist_code": "C99079"}, "MK.EPOCH": {"sdtm_domain": "MK", "sdtm_variable": "EPOCH", "sdtm_label": "Epoch", "codelist": "EPOCH", "codelist_name": "Epoch", "codelist_code": "C99079"}, "ML.EPOCH": {"sdtm_domain": "ML", "sdtm_variable": "EPOCH", "sdtm_label": "Epoch", "codelist": "EPOCH", "codelist_name": "Epoch", "codelist_code": "C99079"}, "MS.EPOCH": {"sdtm_domain": "MS", "sdtm_variable": "EPOCH", "sdtm_label": "Epoch", "codelist": "EPOCH", "codelist_name": "Epoch", "codelist_code": "C99079"}, "NV.EPOCH": {"sdtm_domain": "NV", "sdtm_variable": "EPOCH", "sdtm_label": "Epoch", "codelist": "EPOCH", "codelist_name": "Epoch", "codelist_code": "C99079"}, "OE.EPOCH": {"sdtm_domain": "OE", "sdtm_variable": "EPOCH", "sdtm_label": "Epoch", "codelist": "EPOCH", "codelist_name": "Epoch", "codelist_code": "C99079"}, "PC.EPOCH": {"sdtm_domain": "PC", "sdtm_variable": "EPOCH", "sdtm_label": "Epoch", "codelist": "EPOCH", "codelist_name": "Epoch", "codelist_code": "C99079"}, "PE.EPOCH": {"sdtm_domain": "PE", "sdtm_variable": "EPOCH", "sdtm_label": "Epoch", "codelist": "EPOCH", "codelist_name": "Epoch", "codelist_code": "C99079"}, "PP.EPOCH": {"sdtm_domain": "PP", "sdtm_variable": "EPOCH", "sdtm_label": "Epoch", "codelist": "EPOCH", "codelist_name": "Epoch", "codelist_code": "C99079"}, "PR.EPOCH": {"sdtm_domain": "PR", "sdtm_variable": "EPOCH", "sdtm_label": "Epoch", "codelist": "EPOCH", "codelist_name": "Epoch", "codelist_code": "C99079"}, "QS.EPOCH": {"sdtm_domain": "QS", "sdtm_variable": "EPOCH", "sdtm_label": "Epoch", "codelist": "EPOCH", "codelist_name": "Epoch", "codelist_code": "C99079"}, "RE.EPOCH": {"sdtm_domain": "RE", "sdtm_variable": "EPOCH", "sdtm_label": "Epoch", "codelist": "EPOCH", "codelist_name": "Epoch", "codelist_code": "C99079"}, "RP.EPOCH": {"sdtm_domain": "RP", "sdtm_variable": "EPOCH", "sdtm_label": "Epoch", "codelist": "EPOCH", "codelist_name": "Epoch", "codelist_code": "C99079"}, "RS.EPOCH": {"sdtm_domain": "RS", "sdtm_variable": "EPOCH", "sdtm_label": "Epoch", "codelist": "EPOCH", "codelist_name": "Epoch", "codelist_code": "C99079"}, "SC.EPOCH": {"sdtm_domain": "SC", "sdtm_variable": "EPOCH", "sdtm_label": "Epoch", "codelist": "EPOCH", "codelist_name": "Epoch", "codelist_code": "C99079"}, "SE.EPOCH": {"sdtm_domain": "SE", "sdtm_variable": "EPOCH", "sdtm_label": "Epoch", "codelist": "EPOCH", "codelist_name": "Epoch", "codelist_code": "C99079"}, "SR.EPOCH": {"sdtm_domain": "SR", "sdtm_variable": "EPOCH", "sdtm_label": "Epoch", "codelist": "EPOCH", "codelist_name": "Epoch", "codelist_code": "C99079"}, "SS.EPOCH": {"sdtm_domain": "SS", "sdtm_variable": "EPOCH", "sdtm_label": "Epoch", "codelist": "EPOCH", "codelist_name": "Epoch", "codelist_code": "C99079"}, "SU.EPOCH": {"sdtm_domain": "SU", "sdtm_variable": "EPOCH", "sdtm_label": "Epoch", "codelist": "EPOCH", "codelist_name": "Epoch", "codelist_code": "C99079"}, "TA.EPOCH": {"sdtm_domain": "TA", "sdtm_variable": "EPOCH", "sdtm_label": "Epoch", "codelist": "EPOCH", "codelist_name": "Epoch", "codelist_code": "C99079"}, "TR.EPOCH": {"sdtm_domain": "TR", "sdtm_variable": "EPOCH", "sdtm_label": "Epoch", "codelist": "EPOCH", "codelist_name": "Epoch", "codelist_code": "C99079"}, "TU.EPOCH": {"sdtm_domain": "TU", "sdtm_variable": "EPOCH", "sdtm_label": "Epoch", "codelist": "EPOCH", "codelist_name": "Epoch", "codelist_code": "C99079"}, "UR.EPOCH": {"sdtm_domain": "UR", "sdtm_variable": "EPOCH", "sdtm_label": "Epoch", "codelist": "EPOCH", "codelist_name": "Epoch", "codelist_code": "C99079"}, "VS.EPOCH": {"sdtm_domain": "VS", "sdtm_variable": "EPOCH", "sdtm_label": "Epoch", "codelist": "EPOCH", "codelist_name": "Epoch", "codelist_code": "C99079"}, "DM.ETHNIC": {"sdtm_domain": "DM", "sdtm_variable": "ETHNIC", "sdtm_label": "Ethnicity", "codelist": "ETHNIC", "codelist_name": "Ethnic Group", "codelist_code": "C66790"}, "CO.COEVAL": {"sdtm_domain": "CO", "sdtm_variable": "COEVAL", "sdtm_label": "Evaluator", "codelist": "EVAL", "codelist_name": "Evaluator", "codelist_code": "C78735"}, "CV.CVEVAL": {"sdtm_domain": "CV", "sdtm_variable": "CVEVAL", "sdtm_label": "Evaluator", "codelist": "EVAL", "codelist_name": "Evaluator", "codelist_code": "C78735"}, "DD.DDEVAL": {"sdtm_domain": "DD", "sdtm_variable": "DDEVAL", "sdtm_label": "Evaluator", "codelist": "EVAL", "codelist_name": "Evaluator", "codelist_code": "C78735"}, "EG.EGEVAL": {"sdtm_domain": "EG", "sdtm_variable": "EGEVAL", "sdtm_label": "Evaluator", "codelist": "EVAL", "codelist_name": "Evaluator", "codelist_code": "C78735"}, "FA.FAEVAL": {"sdtm_domain": "FA", "sdtm_variable": "FAEVAL", "sdtm_label": "Evaluator", "codelist": "EVAL", "codelist_name": "Evaluator", "codelist_code": "C78735"}, "FACE.FAEVAL": {"sdtm_domain": "FACE", "sdtm_variable": "FAEVAL", "sdtm_label": "Evaluator", "codelist": "EVAL", "codelist_name": "Evaluator", "codelist_code": "C78735"}, "FAMH.FAEVAL": {"sdtm_domain": "FAMH", "sdtm_variable": "FAEVAL", "sdtm_label": "Evaluator", "codelist": "EVAL", "codelist_name": "Evaluator", "codelist_code": "C78735"}, "MI.MIEVAL": {"sdtm_domain": "MI", "sdtm_variable": "MIEVAL", "sdtm_label": "Evaluator", "codelist": "EVAL", "codelist_name": "Evaluator", "codelist_code": "C78735"}, "MK.MKEVAL": {"sdtm_domain": "MK", "sdtm_variable": "MKEVAL", "sdtm_label": "Evaluator", "codelist": "EVAL", "codelist_name": "Evaluator", "codelist_code": "C78735"}, "MO.MOEVAL": {"sdtm_domain": "MO", "sdtm_variable": "MOEVAL", "sdtm_label": "Evaluator", "codelist": "EVAL", "codelist_name": "Evaluator", "codelist_code": "C78735"}, "MS.MSEVAL": {"sdtm_domain": "MS", "sdtm_variable": "MSEVAL", "sdtm_label": "Evaluator", "codelist": "EVAL", "codelist_name": "Evaluator", "codelist_code": "C78735"}, "NV.NVEVAL": {"sdtm_domain": "NV", "sdtm_variable": "NVEVAL", "sdtm_label": "Evaluator", "codelist": "EVAL", "codelist_name": "Evaluator", "codelist_code": "C78735"}, "OE.OEEVAL": {"sdtm_domain": "OE", "sdtm_variable": "OEEVAL", "sdtm_label": "Evaluator", "codelist": "EVAL", "codelist_name": "Evaluator", "codelist_code": "C78735"}, "PE.PEEVAL": {"sdtm_domain": "PE", "sdtm_variable": "PEEVAL", "sdtm_label": "Evaluator", "codelist": "EVAL", "codelist_name": "Evaluator", "codelist_code": "C78735"}, "QS.QSEVAL": {"sdtm_domain": "QS", "sdtm_variable": "QSEVAL", "sdtm_label": "Evaluator", "codelist": "EVAL", "codelist_name": "Evaluator", "codelist_code": "C78735"}, "RE.REEVAL": {"sdtm_domain": "RE", "sdtm_variable": "REEVAL", "sdtm_label": "Evaluator", "codelist": "EVAL", "codelist_name": "Evaluator", "codelist_code": "C78735"}, "RS.RSEVAL": {"sdtm_domain": "RS", "sdtm_variable": "RSEVAL", "sdtm_label": "Evaluator", "codelist": "EVAL", "codelist_name": "Evaluator", "codelist_code": "C78735"}, "SR.SREVAL": {"sdtm_domain": "SR", "sdtm_variable": "SREVAL", "sdtm_label": "Evaluator", "codelist": "EVAL", "codelist_name": "Evaluator", "codelist_code": "C78735"}, "SS.SSEVAL": {"sdtm_domain": "SS", "sdtm_variable": "SSEVAL", "sdtm_label": "Evaluator", "codelist": "EVAL", "codelist_name": "Evaluator", "codelist_code": "C78735"}, "SUPPQUAL.QEVAL": {"sdtm_domain": "SUPPQUAL", "sdtm_variable": "QEVAL", "sdtm_label": "Evaluator", "codelist": "EVAL", "codelist_name": "Evaluator", "codelist_code": "C78735"}, "TR.TREVAL": {"sdtm_domain": "TR", "sdtm_variable": "TREVAL", "sdtm_label": "Evaluator", "codelist": "EVAL", "codelist_name": "Evaluator", "codelist_code": "C78735"}, "TU.TUEVAL": {"sdtm_domain": "TU", "sdtm_variable": "TUEVAL", "sdtm_label": "Evaluator", "codelist": "EVAL", "codelist_name": "Evaluator", "codelist_code": "C78735"}, "UR.UREVAL": {"sdtm_domain": "UR", "sdtm_variable": "UREVAL", "sdtm_label": "Evaluator", "codelist": "EVAL", "codelist_name": "Evaluator", "codelist_code": "C78735"}, "EX.EXADJ": {"sdtm_domain": "EX", "sdtm_variable": "EXADJ", "sdtm_label": "Reason for Dose Adjustment", "codelist": "EXADJ", "codelist_name": "Reason for Dose Adjustment", "codelist_code": "AZC02326"}, "SUPPEX.EXADPER": {"sdtm_domain": "SUPPEX", "sdtm_variable": "EXADPER", "sdtm_label": "Administration Performed by", "codelist": "EXADPER", "codelist_name": "Administration Performed by", "codelist_code": "AZC02328"}, "SUPPEX.EXAPRELI": {"sdtm_domain": "SUPPEX", "sdtm_variable": "EXAPRELI", "sdtm_label": "Glob/Countr Sit Relat Indicat, Act Taken", "codelist": "EXAPRELI", "codelist_name": "Glob/Countr Sit Relat Indicat, Act Taken", "codelist_code": "AZC02329"}, "SUPPFT.EXERTERM": {"sdtm_domain": "SUPPFT", "sdtm_variable": "EXERTERM", "sdtm_label": "Prematurely Discontinued Exercise Test", "codelist": "EXERTERM", "codelist_name": "Prematurely Discontinued Exercise Test", "codelist_code": "AZC02480"}, "SUPPFT.EXERTREA": {"sdtm_domain": "SUPPFT", "sdtm_variable": "EXERTREA", "sdtm_label": "Reason For Termination of Exercise Test", "codelist": "EXERTREA", "codelist_name": "Reason For Termination of Exercise Test", "codelist_code": "AZC00429"}, "SUPPEX.EXINFS": {"sdtm_domain": "SUPPEX", "sdtm_variable": "EXINFS", "sdtm_label": "Infusion Site", "codelist": "EXINFS", "codelist_name": "Infusion Site", "codelist_code": "AZC02331"}, "SUPPEX.EXLPRELI": {"sdtm_domain": "SUPPEX", "sdtm_variable": "EXLPRELI", "sdtm_label": "Glob/Countr Sit Relat Indicat, Loc/Admin", "codelist": "EXLPRELI", "codelist_name": "Glob/Countr Sit Relat Indicat, Loc/Admin", "codelist_code": "AZC02332"}, "SUPPEX.EXSADPER": {"sdtm_domain": "SUPPEX", "sdtm_variable": "EXSADPER", "sdtm_label": "Admin. Perfr. by, Global/Country Situat", "codelist": "EXSADPER", "codelist_name": "Admin. Perfr. by, Global/Country Situat", "codelist_code": "AZC02333"}, "SUPPEX.EXSLOCST": {"sdtm_domain": "SUPPEX", "sdtm_variable": "EXSLOCST", "sdtm_label": "SD Locatio Status, Global/Country Situat", "codelist": "EXSLOCST", "codelist_name": "SD Locatio Status, Global/Country Situat", "codelist_code": "AZC02335"}, "SUPPEX.EXTCDREA": {"sdtm_domain": "SUPPEX", "sdtm_variable": "EXTCDREA", "sdtm_label": "Treatment Cycle Delay Reason", "codelist": "EXTCDREA", "codelist_name": "Treatment Cycle Delay Reason", "codelist_code": "AZC02337"}, "FA.FACAT": {"sdtm_domain": "FA", "sdtm_variable": "FACAT", "sdtm_label": "Category for Findings About", "codelist": "FACAT", "codelist_name": "Category for Findings About", "codelist_code": "AZC00438"}, "FAAE.FACAT": {"sdtm_domain": "FAAE", "sdtm_variable": "FACAT", "sdtm_label": "Category for Findings About", "codelist": "FACAT", "codelist_name": "Category for Findings About", "codelist_code": "AZC00438"}, "FACE.FACAT": {"sdtm_domain": "FACE", "sdtm_variable": "FACAT", "sdtm_label": "Category for Findings About", "codelist": "FACAT", "codelist_name": "Category for Findings About", "codelist_code": "AZC00438"}, "FAEX.FACAT": {"sdtm_domain": "FAEX", "sdtm_variable": "FACAT", "sdtm_label": "Category for Findings About", "codelist": "FACAT", "codelist_name": "Category for Findings About", "codelist_code": "AZC00438"}, "FAHO.FACAT": {"sdtm_domain": "FAHO", "sdtm_variable": "FACAT", "sdtm_label": "Category for Findings About", "codelist": "FACAT", "codelist_name": "Category for Findings About", "codelist_code": "AZC00438"}, "FAMH.FACAT": {"sdtm_domain": "FAMH", "sdtm_variable": "FACAT", "sdtm_label": "Category for Findings About", "codelist": "FACAT", "codelist_name": "Category for Findings About", "codelist_code": "AZC00438"}, "FAPR.FACAT": {"sdtm_domain": "FAPR", "sdtm_variable": "FACAT", "sdtm_label": "Category for Findings About", "codelist": "FACAT", "codelist_name": "Category for Findings About", "codelist_code": "AZC00438"}, "FAYB.FACAT": {"sdtm_domain": "FAYB", "sdtm_variable": "FACAT", "sdtm_label": "Category for Findings About", "codelist": "FACAT", "codelist_name": "Category for Findings About", "codelist_code": "AZC00438"}, "FAYM.FACAT": {"sdtm_domain": "FAYM", "sdtm_variable": "FACAT", "sdtm_label": "Category for Findings About", "codelist": "FACAT", "codelist_name": "Category for Findings About", "codelist_code": "AZC00438"}, "FAMH.FAEVLINT": {"sdtm_domain": "FAMH", "sdtm_variable": "FAEVLINT", "sdtm_label": "Evaluation Interval", "codelist": "FAEVLINT", "codelist_name": "Evaluation Interval", "codelist_code": "AZC00440"}, "SUPPCM.FAILREAS": {"sdtm_domain": "SUPPCM", "sdtm_variable": "FAILREAS", "sdtm_label": "Reason for Therapy Failure", "codelist": "FAILREAS", "codelist_name": "Reason for Therapy Failure", "codelist_code": "AZC00441"}, "FACE.FALNKGRP": {"sdtm_domain": "FACE", "sdtm_variable": "FALNKGRP", "sdtm_label": "Link Group ID", "codelist": "FALNKGRP", "codelist_name": "Link Group ID", "codelist_code": "AZC02485"}, "FA.FALNKID": {"sdtm_domain": "FA", "sdtm_variable": "FALNKID", "sdtm_label": "Link ID", "codelist": "FALNKID", "codelist_name": "Link ID", "codelist_code": "AZC02686"}, "FAAE.FAOBJ": {"sdtm_domain": "FAAE", "sdtm_variable": "FAOBJ", "sdtm_label": "Object of the Observation", "codelist": "FAOBJ", "codelist_name": "Object of the Observation", "codelist_code": "AZC00442"}, "FACE.FAOBJ": {"sdtm_domain": "FACE", "sdtm_variable": "FAOBJ", "sdtm_label": "Object of the Observation", "codelist": "FAOBJ", "codelist_name": "Object of the Observation", "codelist_code": "AZC00442"}, "FAHO.FAOBJ": {"sdtm_domain": "FAHO", "sdtm_variable": "FAOBJ", "sdtm_label": "Object of the Observation", "codelist": "FAOBJ", "codelist_name": "Object of the Observation", "codelist_code": "AZC00442"}, "FAMH.FAOBJ": {"sdtm_domain": "FAMH", "sdtm_variable": "FAOBJ", "sdtm_label": "Object of the Observation", "codelist": "FAOBJ", "codelist_name": "Object of the Observation", "codelist_code": "AZC00442"}, "FAPR.FAOBJ": {"sdtm_domain": "FAPR", "sdtm_variable": "FAOBJ", "sdtm_label": "Object of the Observation", "codelist": "FAOBJ", "codelist_name": "Object of the Observation", "codelist_code": "AZC00442"}, "FAYB.FAOBJ": {"sdtm_domain": "FAYB", "sdtm_variable": "FAOBJ", "sdtm_label": "Object of the Observation", "codelist": "FAOBJ", "codelist_name": "Object of the Observation", "codelist_code": "AZC00442"}, "FAYM.FAOBJ": {"sdtm_domain": "FAYM", "sdtm_variable": "FAOBJ", "sdtm_label": "Object of the Observation", "codelist": "FAOBJ", "codelist_name": "Object of the Observation", "codelist_code": "AZC00442"}, "FAPR.FAREASND": {"sdtm_domain": "FAPR", "sdtm_variable": "FAREASND", "sdtm_label": "Reason Not Performed", "codelist": "FAREASND", "codelist_name": "Reason Not Performed", "codelist_code": "AZC02487"}, "FA.FASCAT": {"sdtm_domain": "FA", "sdtm_variable": "FASCAT", "sdtm_label": "Subcategory for Findings About", "codelist": "FASCAT", "codelist_name": "Subcategory for Findings About", "codelist_code": "AZC00443"}, "FAAE.FASCAT": {"sdtm_domain": "FAAE", "sdtm_variable": "FASCAT", "sdtm_label": "Subcategory for Findings About", "codelist": "FASCAT", "codelist_name": "Subcategory for Findings About", "codelist_code": "AZC00443"}, "FACE.FASCAT": {"sdtm_domain": "FACE", "sdtm_variable": "FASCAT", "sdtm_label": "Subcategory for Findings About", "codelist": "FASCAT", "codelist_name": "Subcategory for Findings About", "codelist_code": "AZC00443"}, "FAHO.FASCAT": {"sdtm_domain": "FAHO", "sdtm_variable": "FASCAT", "sdtm_label": "Subcategory for Findings About", "codelist": "FASCAT", "codelist_name": "Subcategory for Findings About", "codelist_code": "AZC00443"}, "FAMH.FASCAT": {"sdtm_domain": "FAMH", "sdtm_variable": "FASCAT", "sdtm_label": "Subcategory for Findings About", "codelist": "FASCAT", "codelist_name": "Subcategory for Findings About", "codelist_code": "AZC00443"}, "FAPR.FASCAT": {"sdtm_domain": "FAPR", "sdtm_variable": "FASCAT", "sdtm_label": "Subcategory for Findings About", "codelist": "FASCAT", "codelist_name": "Subcategory for Findings About", "codelist_code": "AZC00443"}, "FA.FATEST": {"sdtm_domain": "FA", "sdtm_variable": "FATEST", "sdtm_label": "Findings About Test Name", "codelist": "FATEST", "codelist_name": "Findings About Test Name", "codelist_code": "C101833"}, "FAAE.FATEST": {"sdtm_domain": "FAAE", "sdtm_variable": "FATEST", "sdtm_label": "Findings About Test Name", "codelist": "FATEST", "codelist_name": "Findings About Test Name", "codelist_code": "C101833"}, "FACE.FATEST": {"sdtm_domain": "FACE", "sdtm_variable": "FATEST", "sdtm_label": "Findings About Test Name", "codelist": "FATEST", "codelist_name": "Findings About Test Name", "codelist_code": "C101833"}, "FAEX.FATEST": {"sdtm_domain": "FAEX", "sdtm_variable": "FATEST", "sdtm_label": "Findings About Test Name", "codelist": "FATEST", "codelist_name": "Findings About Test Name", "codelist_code": "C101833"}, "FAHO.FATEST": {"sdtm_domain": "FAHO", "sdtm_variable": "FATEST", "sdtm_label": "Findings About Test Name", "codelist": "FATEST", "codelist_name": "Findings About Test Name", "codelist_code": "C101833"}, "FAMH.FATEST": {"sdtm_domain": "FAMH", "sdtm_variable": "FATEST", "sdtm_label": "Findings About Test Name", "codelist": "FATEST", "codelist_name": "Findings About Test Name", "codelist_code": "C101833"}, "FAPR.FATEST": {"sdtm_domain": "FAPR", "sdtm_variable": "FATEST", "sdtm_label": "Findings About Test Name", "codelist": "FATEST", "codelist_name": "Findings About Test Name", "codelist_code": "C101833"}, "FAYB.FATEST": {"sdtm_domain": "FAYB", "sdtm_variable": "FATEST", "sdtm_label": "Findings About Test Name", "codelist": "FATEST", "codelist_name": "Findings About Test Name", "codelist_code": "C101833"}, "FAYM.FATEST": {"sdtm_domain": "FAYM", "sdtm_variable": "FATEST", "sdtm_label": "Findings About Test Name", "codelist": "FATEST", "codelist_name": "Findings About Test Name", "codelist_code": "C101833"}, "FA.FATESTCD": {"sdtm_domain": "FA", "sdtm_variable": "FATESTCD", "sdtm_label": "Findings About Test Short Name", "codelist": "FATESTCD", "codelist_name": "Findings About Test Code", "codelist_code": "C101832"}, "FAAE.FATESTCD": {"sdtm_domain": "FAAE", "sdtm_variable": "FATESTCD", "sdtm_label": "Findings About Test Short Name", "codelist": "FATESTCD", "codelist_name": "Findings About Test Code", "codelist_code": "C101832"}, "FACE.FATESTCD": {"sdtm_domain": "FACE", "sdtm_variable": "FATESTCD", "sdtm_label": "Findings About Test Short Name", "codelist": "FATESTCD", "codelist_name": "Findings About Test Code", "codelist_code": "C101832"}, "FAEX.FATESTCD": {"sdtm_domain": "FAEX", "sdtm_variable": "FATESTCD", "sdtm_label": "Findings About Test Short Name", "codelist": "FATESTCD", "codelist_name": "Findings About Test Code", "codelist_code": "C101832"}, "FAHO.FATESTCD": {"sdtm_domain": "FAHO", "sdtm_variable": "FATESTCD", "sdtm_label": "Findings About Test Short Name", "codelist": "FATESTCD", "codelist_name": "Findings About Test Code", "codelist_code": "C101832"}, "FAMH.FATESTCD": {"sdtm_domain": "FAMH", "sdtm_variable": "FATESTCD", "sdtm_label": "Findings About Test Short Name", "codelist": "FATESTCD", "codelist_name": "Findings About Test Code", "codelist_code": "C101832"}, "FAPR.FATESTCD": {"sdtm_domain": "FAPR", "sdtm_variable": "FATESTCD", "sdtm_label": "Findings About Test Short Name", "codelist": "FATESTCD", "codelist_name": "Findings About Test Code", "codelist_code": "C101832"}, "FAYB.FATESTCD": {"sdtm_domain": "FAYB", "sdtm_variable": "FATESTCD", "sdtm_label": "Findings About Test Short Name", "codelist": "FATESTCD", "codelist_name": "Findings About Test Code", "codelist_code": "C101832"}, "FAYM.FATESTCD": {"sdtm_domain": "FAYM", "sdtm_variable": "FATESTCD", "sdtm_label": "Findings About Test Short Name", "codelist": "FATESTCD", "codelist_name": "Findings About Test Code", "codelist_code": "C101832"}, "FA.FATPT": {"sdtm_domain": "FA", "sdtm_variable": "FATPT", "sdtm_label": "Planned Time Point Name", "codelist": "FATPT", "codelist_name": "Planned Time Point Name", "codelist_code": "AZC02551"}, "FACE.FATPTREF": {"sdtm_domain": "FACE", "sdtm_variable": "FATPTREF", "sdtm_label": "Time Point Reference", "codelist": "FATPTREF", "codelist_name": "Time Point Reference", "codelist_code": "AZC02490"}, "SUPPXC.FDGLEAK": {"sdtm_domain": "SUPPXC", "sdtm_variable": "FDGLEAK", "sdtm_label": "Evidence of Extravasation", "codelist": "FDGLEAK", "codelist_name": "Evidence of Extravasation", "codelist_code": "AZC00445"}, "SUPPML.FNFALLOC": {"sdtm_domain": "SUPPML", "sdtm_variable": "FNFALLOC", "sdtm_label": "Subject Allocated to Fasting/Non-fasting", "codelist": "FNFALLOC", "codelist_name": "Subject Allocated to Fasting/Non-fasting", "codelist_code": "AZC00446"}, "AG.AGDOSFRQ": {"sdtm_domain": "AG", "sdtm_variable": "AGDOSFRQ", "sdtm_label": "Dosing Frequency per Interval", "codelist": "FREQ", "codelist_name": "Frequency", "codelist_code": "C71113"}, "CM.CMDOSFRQ": {"sdtm_domain": "CM", "sdtm_variable": "CMDOSFRQ", "sdtm_label": "Dosing Frequency per Interval", "codelist": "FREQ", "codelist_name": "Frequency", "codelist_code": "C71113"}, "DX.DXDOSFRQ": {"sdtm_domain": "DX", "sdtm_variable": "DXDOSFRQ", "sdtm_label": "Device Exposure Frequency per Interval", "codelist": "FREQ", "codelist_name": "Frequency", "codelist_code": "C71113"}, "EC.ECDOSFRQ": {"sdtm_domain": "EC", "sdtm_variable": "ECDOSFRQ", "sdtm_label": "Dosing Frequency per Interval", "codelist": "FREQ", "codelist_name": "Frequency", "codelist_code": "C71113"}, "EX.EXDOSFRQ": {"sdtm_domain": "EX", "sdtm_variable": "EXDOSFRQ", "sdtm_label": "Dosing Frequency per Interval", "codelist": "FREQ", "codelist_name": "Frequency", "codelist_code": "C71113"}, "ML.MLDOSFRQ": {"sdtm_domain": "ML", "sdtm_variable": "MLDOSFRQ", "sdtm_label": "Meal Frequency per Interval", "codelist": "FREQ", "codelist_name": "Frequency", "codelist_code": "C71113"}, "PR.PRDOSFRQ": {"sdtm_domain": "PR", "sdtm_variable": "PRDOSFRQ", "sdtm_label": "Dosing Frequency per Interval", "codelist": "FREQ", "codelist_name": "Frequency", "codelist_code": "C71113"}, "SU.SUDOSFRQ": {"sdtm_domain": "SU", "sdtm_variable": "SUDOSFRQ", "sdtm_label": "Use Frequency Per Interval", "codelist": "FREQ", "codelist_name": "Frequency", "codelist_code": "C71113"}, "AG.AGDOSFRM": {"sdtm_domain": "AG", "sdtm_variable": "AGDOSFRM", "sdtm_label": "Dose Form", "codelist": "FRM", "codelist_name": "Dosage Form", "codelist_code": "C66726"}, "CM.CMDOSFRM": {"sdtm_domain": "CM", "sdtm_variable": "CMDOSFRM", "sdtm_label": "Dose Form", "codelist": "FRM", "codelist_name": "Dosage Form", "codelist_code": "C66726"}, "EC.ECDOSFRM": {"sdtm_domain": "EC", "sdtm_variable": "ECDOSFRM", "sdtm_label": "Dose Form", "codelist": "FRM", "codelist_name": "Dosage Form", "codelist_code": "C66726"}, "EX.EXDOSFRM": {"sdtm_domain": "EX", "sdtm_variable": "EXDOSFRM", "sdtm_label": "Dose Form", "codelist": "FRM", "codelist_name": "Dosage Form", "codelist_code": "C66726"}, "ML.MLDOSFRM": {"sdtm_domain": "ML", "sdtm_variable": "MLDOSFRM", "sdtm_label": "Meal Form", "codelist": "FRM", "codelist_name": "Dosage Form", "codelist_code": "C66726"}, "PR.PRDOSFRM": {"sdtm_domain": "PR", "sdtm_variable": "PRDOSFRM", "sdtm_label": "Dose Form", "codelist": "FRM", "codelist_name": "Dosage Form", "codelist_code": "C66726"}, "SU.SUDOSFRM": {"sdtm_domain": "SU", "sdtm_variable": "SUDOSFRM", "sdtm_label": "Dose Form", "codelist": "FRM", "codelist_name": "Dosage Form", "codelist_code": "C66726"}, "FT.FTCAT": {"sdtm_domain": "FT", "sdtm_variable": "FTCAT", "sdtm_label": "Category", "codelist": "FTCAT", "codelist_name": "Category of Functional Test", "codelist_code": "C115304"}, "FT.FTSCAT": {"sdtm_domain": "FT", "sdtm_variable": "FTSCAT", "sdtm_label": "Subcategory", "codelist": "FTSCAT", "codelist_name": "Subcategory", "codelist_code": "AZC00447"}, "BS.BSSPEC": {"sdtm_domain": "BS", "sdtm_variable": "BSSPEC", "sdtm_label": "Specimen Type", "codelist": "SPECTYPE", "codelist_name": "Specimen Type", "codelist_code": "C78734"}, "GF.GFSPEC": {"sdtm_domain": "GF", "sdtm_variable": "GFSPEC", "sdtm_label": "Specimen Material Type", "codelist": "GENSMP", "codelist_name": "Genetic Sample Type", "codelist_code": "C111114"}, "PF.PFSPEC": {"sdtm_domain": "PF", "sdtm_variable": "PFSPEC", "sdtm_label": "Specimen Type", "codelist": "GENSMP", "codelist_name": "Genetic Sample Type", "codelist_code": "C111114"}, "PG.PGSPEC": {"sdtm_domain": "PG", "sdtm_variable": "PGSPEC", "sdtm_label": "Specimen Type", "codelist": "GENSMP", "codelist_name": "Genetic Sample Type", "codelist_code": "C111114"}, "RELSPEC.SPEC": {"sdtm_domain": "RELSPEC", "sdtm_variable": "SPEC", "sdtm_label": "Specimen Type", "codelist": "SPECTYPE", "codelist_name": "Specimen Type", "codelist_code": "C78734"}, "VR.VRSPEC": {"sdtm_domain": "VR", "sdtm_variable": "VRSPEC", "sdtm_label": "Specimen Type", "codelist": "GENSMP", "codelist_name": "Genetic Sample Type", "codelist_code": "C111114"}, "GF.GFANMETH": {"sdtm_domain": "GF", "sdtm_variable": "GFANMETH", "sdtm_label": "Analysis Method", "codelist": "GFANMET", "codelist_name": "Genomic Findings Analytical Method Calculation Formula", "codelist_code": "C181181"}, "GF.GFCAT": {"sdtm_domain": "GF", "sdtm_variable": "GFCAT", "sdtm_label": "Category for Genomic Finding", "codelist": "GFCAT", "codelist_name": "Category for Genomic Finding", "codelist_code": "AZC02552"}, "GF.GFCHROM": {"sdtm_domain": "GF", "sdtm_variable": "GFCHROM", "sdtm_label": "Chromosome Identifier", "codelist": "GFCHROM", "codelist_name": "Chromosome Identifier", "codelist_code": "AZC02570"}, "GF.GFGENLOC": {"sdtm_domain": "GF", "sdtm_variable": "GFGENLOC", "sdtm_label": "Genetic Location", "codelist": "GFGENLOC", "codelist_name": "Genetic Location", "codelist_code": "AZC02688"}, "GF.GFGENREF": {"sdtm_domain": "GF", "sdtm_variable": "GFGENREF", "sdtm_label": "Genome Reference", "codelist": "GFGENREF", "codelist_name": "Genome Reference", "codelist_code": "AZC02571"}, "GF.GFREASND": {"sdtm_domain": "GF", "sdtm_variable": "GFREASND", "sdtm_label": "Reason Test Not Done", "codelist": "GFREASND", "codelist_name": "Reason Test Not Done", "codelist_code": "AZC02553"}, "GF.GFSCAT": {"sdtm_domain": "GF", "sdtm_variable": "GFSCAT", "sdtm_label": "Subcategory for Genomic Finding", "codelist": "GFSCAT", "codelist_name": "Subcategory for Genomic Finding", "codelist_code": "AZC02603"}, "GF.GFSYM": {"sdtm_domain": "GF", "sdtm_variable": "GFSYM", "sdtm_label": "Genomic Symbol", "codelist": "GFSYM", "codelist_name": "Genomic Symbol", "codelist_code": "AZC02605"}, "GF.GFTEST": {"sdtm_domain": "GF", "sdtm_variable": "GFTEST", "sdtm_label": "Name of Genomic Measurement", "codelist": "GFTEST", "codelist_name": "Genomic Findings Test Name", "codelist_code": "C181179"}, "GF.GFTESTCD": {"sdtm_domain": "GF", "sdtm_variable": "GFTESTCD", "sdtm_label": "Short Name of Genomic Measurement", "codelist": "GFTESTCD", "codelist_name": "Genomic Findings Test Code", "codelist_code": "C181178"}, "GF.GFTSTDTL": {"sdtm_domain": "GF", "sdtm_variable": "GFTSTDTL", "sdtm_label": "Measurement, Test, or Examination Detail", "codelist": "GFTSDTL", "codelist_name": "Genomic Findings Test Detail", "codelist_code": "C181180"}, "SUPPHO.HLDICAT": {"sdtm_domain": "SUPPHO", "sdtm_variable": "HLDICAT", "sdtm_label": "Discharge Category", "codelist": "HLDICAT", "codelist_name": "Discharge Category", "codelist_code": "AZC00448"}, "SUPPHO.HLLCDA": {"sdtm_domain": "SUPPHO", "sdtm_variable": "HLLCDA", "sdtm_label": "Level of Care during Admission", "codelist": "HLLCDA", "codelist_name": "Level of Care during Admission", "codelist_code": "AZC00449"}, "SUPPHO.HLREAS": {"sdtm_domain": "SUPPHO", "sdtm_variable": "HLREAS", "sdtm_label": "Reason for Hospitalization", "codelist": "HLREAS", "codelist_name": "Reason for Hospitalization", "codelist_code": "AZC00450"}, "HO.HOCAT": {"sdtm_domain": "HO", "sdtm_variable": "HOCAT", "sdtm_label": "Category for Healthcare Encounter", "codelist": "HOCAT", "codelist_name": "Category for Healthcare Encounter", "codelist_code": "AZC00451"}, "HO.HODECOD": {"sdtm_domain": "HO", "sdtm_variable": "HODECOD", "sdtm_label": "Dictionary-Derived Term for the Healthcare Encounter", "codelist": "HODECOD", "codelist_name": "Health Care Encounters Dictionary Derived Term", "codelist_code": "C171444"}, "SUPPHO.HOINDC": {"sdtm_domain": "SUPPHO", "sdtm_variable": "HOINDC", "sdtm_label": "Indication", "codelist": "HOINDC", "codelist_name": "Indication", "codelist_code": "AZC00453"}, "SUPPHO.HOREASON": {"sdtm_domain": "SUPPHO", "sdtm_variable": "HOREASON", "sdtm_label": "Reason for Healthcare Encounter", "codelist": "HOREASON", "codelist_name": "Reason for Healthcare Encounter", "codelist_code": "AZC00258"}, "HO.HOSCAT": {"sdtm_domain": "HO", "sdtm_variable": "HOSCAT", "sdtm_label": "Subcategory for Healthcare Encounter", "codelist": "HOSCAT", "codelist_name": "Subcategory for Healthcare Encounter", "codelist_code": "AZC00454"}, "IE.IECAT": {"sdtm_domain": "IE", "sdtm_variable": "IECAT", "sdtm_label": "Inclusion/Exclusion Category", "codelist": "IECAT", "codelist_name": "Category of Inclusion/Exclusion", "codelist_code": "C66797"}, "TI.IECAT": {"sdtm_domain": "TI", "sdtm_variable": "IECAT", "sdtm_label": "Inclusion/Exclusion Category", "codelist": "IECAT", "codelist_name": "Category of Inclusion/Exclusion", "codelist_code": "C66797"}, "GF.GFINHERT": {"sdtm_domain": "GF", "sdtm_variable": "GFINHERT", "sdtm_label": "Inheritability", "codelist": "INHERTGF", "codelist_name": "Genomic Inheritability Type Response", "codelist_code": "C181177"}, "SUPPRS.INVAWREC": {"sdtm_domain": "SUPPRS", "sdtm_variable": "INVAWREC", "sdtm_label": "Inv Opinion Agrees with RECIST Response", "codelist": "INVAWREC", "codelist_name": "Inv Opinion Agrees with RECIST Response", "codelist_code": "AZC00456"}, "IS.ISBDAGNT": {"sdtm_domain": "IS", "sdtm_variable": "ISBDAGNT", "sdtm_label": "Binding Agent", "codelist": "MICROORG", "codelist_name": "Microorganism", "codelist_code": "C85491"}, "IS.ISCAT": {"sdtm_domain": "IS", "sdtm_variable": "ISCAT", "sdtm_label": "Category for Immunogenicity Test", "codelist": "ISCAT", "codelist_name": "Category for Immunogenicity Test", "codelist_code": "AZC00458"}, "IS.ISRESSCL": {"sdtm_domain": "IS", "sdtm_variable": "ISRESSCL", "sdtm_label": "Result Scale", "codelist": "ISRESSCL", "codelist_name": "Result Scale", "codelist_code": "AZC02724"}, "IS.ISSCAT": {"sdtm_domain": "IS", "sdtm_variable": "ISSCAT", "sdtm_label": "Subcategory for Immunogenicity Test", "codelist": "ISSCAT", "codelist_name": "Subcategory for Immunogenicity Test", "codelist_code": "AZC00459"}, "IS.ISTEST": {"sdtm_domain": "IS", "sdtm_variable": "ISTEST", "sdtm_label": "Immunogenicity Test or Examination Name", "codelist": "ISTEST", "codelist_name": "Immunogenicity Specimen Assessments Test Name", "codelist_code": "C120526"}, "IS.ISTESTCD": {"sdtm_domain": "IS", "sdtm_variable": "ISTESTCD", "sdtm_label": "Immunogenicity Test/Exam Short Name", "codelist": "ISTESTCD", "codelist_name": "Immunogenicity Specimen Assessments Test Code", "codelist_code": "C120525"}, "IS.ISTSTDTL": {"sdtm_domain": "IS", "sdtm_variable": "ISTSTDTL", "sdtm_label": "Test Detail", "codelist": "ISTSTDTL", "codelist_name": "Test Detail", "codelist_code": "AZC02609"}, "CE.CELAT": {"sdtm_domain": "CE", "sdtm_variable": "CELAT", "sdtm_label": "Laterality", "codelist": "LAT", "codelist_name": "Laterality", "codelist_code": "C99073"}, "CM.CMLAT": {"sdtm_domain": "CM", "sdtm_variable": "CMLAT", "sdtm_label": "Laterality", "codelist": "LAT", "codelist_name": "Laterality", "codelist_code": "C99073"}, "CV.CVLAT": {"sdtm_domain": "CV", "sdtm_variable": "CVLAT", "sdtm_label": "Laterality", "codelist": "LAT", "codelist_name": "Laterality", "codelist_code": "C99073"}, "DX.DXLAT": {"sdtm_domain": "DX", "sdtm_variable": "DXLAT", "sdtm_label": "Laterality of Device Exposure", "codelist": "LAT", "codelist_name": "Laterality", "codelist_code": "C99073"}, "EC.ECLAT": {"sdtm_domain": "EC", "sdtm_variable": "ECLAT", "sdtm_label": "Laterality", "codelist": "LAT", "codelist_name": "Laterality", "codelist_code": "C99073"}, "EX.EXLAT": {"sdtm_domain": "EX", "sdtm_variable": "EXLAT", "sdtm_label": "Laterality", "codelist": "LAT", "codelist_name": "Laterality", "codelist_code": "C99073"}, "FA.FALAT": {"sdtm_domain": "FA", "sdtm_variable": "FALAT", "sdtm_label": "Laterality of Location of the Finding About", "codelist": "LAT", "codelist_name": "Laterality", "codelist_code": "C99073"}, "FACE.FALAT": {"sdtm_domain": "FACE", "sdtm_variable": "FALAT", "sdtm_label": "Laterality", "codelist": "LAT", "codelist_name": "Laterality", "codelist_code": "C99073"}, "FAPR.FALAT": {"sdtm_domain": "FAPR", "sdtm_variable": "FALAT", "sdtm_label": "Laterality", "codelist": "LAT", "codelist_name": "Laterality", "codelist_code": "C99073"}, "MB.MBLAT": {"sdtm_domain": "MB", "sdtm_variable": "MBLAT", "sdtm_label": "Laterality", "codelist": "LAT", "codelist_name": "Laterality", "codelist_code": "C99073"}, "MI.MILAT": {"sdtm_domain": "MI", "sdtm_variable": "MILAT", "sdtm_label": "Specimen Laterality within Subject", "codelist": "LAT", "codelist_name": "Laterality", "codelist_code": "C99073"}, "MK.MKLAT": {"sdtm_domain": "MK", "sdtm_variable": "MKLAT", "sdtm_label": "Laterality", "codelist": "LAT", "codelist_name": "Laterality", "codelist_code": "C99073"}, "MO.MOLAT": {"sdtm_domain": "MO", "sdtm_variable": "MOLAT", "sdtm_label": "Specimen Laterality within Subject", "codelist": "LAT", "codelist_name": "Laterality", "codelist_code": "C99073"}, "MS.MSLAT": {"sdtm_domain": "MS", "sdtm_variable": "MSLAT", "sdtm_label": "Laterality", "codelist": "LAT", "codelist_name": "Laterality", "codelist_code": "C99073"}, "NV.NVLAT": {"sdtm_domain": "NV", "sdtm_variable": "NVLAT", "sdtm_label": "Laterality", "codelist": "LAT", "codelist_name": "Laterality", "codelist_code": "C99073"}, "OE.OELAT": {"sdtm_domain": "OE", "sdtm_variable": "OELAT", "sdtm_label": "Laterality", "codelist": "LAT", "codelist_name": "Laterality", "codelist_code": "C99073"}, "PE.PELAT": {"sdtm_domain": "PE", "sdtm_variable": "PELAT", "sdtm_label": "Laterality", "codelist": "LAT", "codelist_name": "Laterality", "codelist_code": "C99073"}, "PR.PRLAT": {"sdtm_domain": "PR", "sdtm_variable": "PRLAT", "sdtm_label": "Laterality", "codelist": "LAT", "codelist_name": "Laterality", "codelist_code": "C99073"}, "RE.RELAT": {"sdtm_domain": "RE", "sdtm_variable": "RELAT", "sdtm_label": "Laterality", "codelist": "LAT", "codelist_name": "Laterality", "codelist_code": "C99073"}, "RS.RSLAT": {"sdtm_domain": "RS", "sdtm_variable": "RSLAT", "sdtm_label": "Laterality", "codelist": "LAT", "codelist_name": "Laterality", "codelist_code": "C99073"}, "SR.SRLAT": {"sdtm_domain": "SR", "sdtm_variable": "SRLAT", "sdtm_label": "Laterality", "codelist": "LAT", "codelist_name": "Laterality", "codelist_code": "C99073"}, "TU.TULAT": {"sdtm_domain": "TU", "sdtm_variable": "TULAT", "sdtm_label": "Laterality", "codelist": "LAT", "codelist_name": "Laterality", "codelist_code": "C99073"}, "UR.URLAT": {"sdtm_domain": "UR", "sdtm_variable": "URLAT", "sdtm_label": "Laterality", "codelist": "LAT", "codelist_name": "Laterality", "codelist_code": "C99073"}, "VS.VSLAT": {"sdtm_domain": "VS", "sdtm_variable": "VSLAT", "sdtm_label": "Laterality", "codelist": "LAT", "codelist_name": "Laterality", "codelist_code": "C99073"}, "LB.LBANMETH": {"sdtm_domain": "LB", "sdtm_variable": "LBANMETH", "sdtm_label": "Analysis Method", "codelist": "LBANMET", "codelist_name": "Laboratory Analytical Method Calculation Formula", "codelist_code": "C160922"}, "LB.LBCAT": {"sdtm_domain": "LB", "sdtm_variable": "LBCAT", "sdtm_label": "Category for Lab Test", "codelist": "LBCAT", "codelist_name": "Category for Lab Test", "codelist_code": "AZC00463"}, "SUPPLB.LBOUTLR": {"sdtm_domain": "SUPPLB", "sdtm_variable": "LBOUTLR", "sdtm_label": "LBNO Outlier Flag", "codelist": "LBOUTLR", "codelist_name": "LBNO Outlier Flag", "codelist_code": "AZC00465"}, "LB.LBREASND": {"sdtm_domain": "LB", "sdtm_variable": "LBREASND", "sdtm_label": "Reason Test Not Done", "codelist": "LBREASND", "codelist_name": "Reason Test Not Done", "codelist_code": "AZC02575"}, "LB.LBSCAT": {"sdtm_domain": "LB", "sdtm_variable": "LBSCAT", "sdtm_label": "Subcategory for Lab Test", "codelist": "LBSCAT", "codelist_name": "Subcategory for Lab Test", "codelist_code": "AZC00467"}, "LB.LBSTRESC": {"sdtm_domain": "LB", "sdtm_variable": "LBSTRESC", "sdtm_label": "Character Result/Finding in Std Format", "codelist": "LBSTRESC", "codelist_name": "Laboratory Test Standard Character Result", "codelist_code": "C102580"}, "LC.LCSTRESC": {"sdtm_domain": "LC", "sdtm_variable": "LCSTRESC", "sdtm_label": "Character Result/Finding in Std Format", "codelist": "LBSTRESC", "codelist_name": "Laboratory Test Standard Character Result", "codelist_code": "C102580"}, "LB.LBTEST": {"sdtm_domain": "LB", "sdtm_variable": "LBTEST", "sdtm_label": "Lab Test or Examination Name", "codelist": "LBTEST", "codelist_name": "Laboratory Test Name", "codelist_code": "C67154"}, "LC.LCTEST": {"sdtm_domain": "LC", "sdtm_variable": "LCTEST", "sdtm_label": "Lab Test or Examination Name", "codelist": "LBTEST", "codelist_name": "Laboratory Test Name", "codelist_code": "C67154"}, "LB.LBTESTCD": {"sdtm_domain": "LB", "sdtm_variable": "LBTESTCD", "sdtm_label": "Lab Test or Examination Short Name", "codelist": "LBTESTCD", "codelist_name": "Laboratory Test Code", "codelist_code": "C65047"}, "LC.LCTESTCD": {"sdtm_domain": "LC", "sdtm_variable": "LCTESTCD", "sdtm_label": "Lab Test or Examination Short Name", "codelist": "LBTESTCD", "codelist_name": "Laboratory Test Code", "codelist_code": "C65047"}, "SUPPLB.LBTYPE": {"sdtm_domain": "SUPPLB", "sdtm_variable": "LBTYPE", "sdtm_label": "Type of Laboratory", "codelist": "LBTYPE", "codelist_name": "Type of Laboratory", "codelist_code": "AZC00067"}, "SUPPLC.LBTYPE": {"sdtm_domain": "SUPPLC", "sdtm_variable": "LBTYPE", "sdtm_label": "Type of Laboratory", "codelist": "LBTYPE", "codelist_name": "Type of Laboratory", "codelist_code": "AZC00067"}, "LC.LCCAT": {"sdtm_domain": "LC", "sdtm_variable": "LCCAT", "sdtm_label": "Category for Lab Test", "codelist": "LCCAT", "codelist_name": "Category for Lab Test", "codelist_code": "AZC02691"}, "LC.LCSCAT": {"sdtm_domain": "LC", "sdtm_variable": "LCSCAT", "sdtm_label": "Subcategory for Lab Test", "codelist": "LCSCAT", "codelist_name": "Subcategory for Lab Test", "codelist_code": "AZC02692"}, "SUPPTU.LESCON": {"sdtm_domain": "SUPPTU", "sdtm_variable": "LESCON", "sdtm_label": "Equivocal Lesion Convert to Unequivocal", "codelist": "LESCON", "codelist_name": "Equivocal Lesion Convert to Unequivocal", "codelist_code": "AZC00468"}, "SUPPTU.LESOBS": {"sdtm_domain": "SUPPTU", "sdtm_variable": "LESOBS", "sdtm_label": "New Lesion First Observed at this Visit", "codelist": "LESOBS", "codelist_name": "New Lesion First Observed at this Visit", "codelist_code": "AZC00469"}, "SUPPTR.LESTYP": {"sdtm_domain": "SUPPTR", "sdtm_variable": "LESTYP", "sdtm_label": "Lesion Type", "codelist": "LESTYP", "codelist_name": "Lesion Type", "codelist_code": "AZC00068"}, "SUPPRS.LNECTREA": {"sdtm_domain": "SUPPRS", "sdtm_variable": "LNECTREA", "sdtm_label": "Lugano Reason CT/MRI Resp NE", "codelist": "LNECTREA", "codelist_name": "Lugano Reason CT/MRI Resp NE", "codelist_code": "AZC02358"}, "SUPPRS.LNEPETRS": {"sdtm_domain": "SUPPRS", "sdtm_variable": "LNEPETRS", "sdtm_label": "Lugano Reason PET/PET-CT Resp NE", "codelist": "LNEPETRS", "codelist_name": "Lugano Reason PET/PET-CT Resp NE", "codelist_code": "AZC02359"}, "AE.AELOC": {"sdtm_domain": "AE", "sdtm_variable": "AELOC", "sdtm_label": "Location of Event", "codelist": "LOC", "codelist_name": "Anatomical Location", "codelist_code": "C74456"}, "BE.BELOC": {"sdtm_domain": "BE", "sdtm_variable": "BELOC", "sdtm_label": "Anatomical Location of Event", "codelist": "LOC", "codelist_name": "Anatomical Location", "codelist_code": "C74456"}, "CE.CELOC": {"sdtm_domain": "CE", "sdtm_variable": "CELOC", "sdtm_label": "Location of Event", "codelist": "LOC", "codelist_name": "Anatomical Location", "codelist_code": "C74456"}, "CM.CMLOC": {"sdtm_domain": "CM", "sdtm_variable": "CMLOC", "sdtm_label": "Location of Administration", "codelist": "LOC", "codelist_name": "Anatomical Location", "codelist_code": "C74456"}, "CV.CVLOC": {"sdtm_domain": "CV", "sdtm_variable": "CVLOC", "sdtm_label": "Location Used for the Measurement", "codelist": "LOC", "codelist_name": "Anatomical Location", "codelist_code": "C74456"}, "DX.DXLOC": {"sdtm_domain": "DX", "sdtm_variable": "DXLOC", "sdtm_label": "Location of Device Exposure", "codelist": "LOC", "codelist_name": "Anatomical Location", "codelist_code": "C74456"}, "EC.ECLOC": {"sdtm_domain": "EC", "sdtm_variable": "ECLOC", "sdtm_label": "Location of Dose Administration", "codelist": "LOC", "codelist_name": "Anatomical Location", "codelist_code": "C74456"}, "EX.EXLOC": {"sdtm_domain": "EX", "sdtm_variable": "EXLOC", "sdtm_label": "Location of Dose Administration", "codelist": "LOC", "codelist_name": "Anatomical Location", "codelist_code": "C74456"}, "FA.FALOC": {"sdtm_domain": "FA", "sdtm_variable": "FALOC", "sdtm_label": "Location of the Finding About", "codelist": "LOC", "codelist_name": "Anatomical Location", "codelist_code": "C74456"}, "FAPR.FALOC": {"sdtm_domain": "FAPR", "sdtm_variable": "FALOC", "sdtm_label": "Location of the Finding About", "codelist": "LOC", "codelist_name": "Anatomical Location", "codelist_code": "C74456"}, "MB.MBLOC": {"sdtm_domain": "MB", "sdtm_variable": "MBLOC", "sdtm_label": "Specimen Collection Location", "codelist": "LOC", "codelist_name": "Anatomical Location", "codelist_code": "C74456"}, "MI.MILOC": {"sdtm_domain": "MI", "sdtm_variable": "MILOC", "sdtm_label": "Specimen Collection Location", "codelist": "LOC", "codelist_name": "Anatomical Location", "codelist_code": "C74456"}, "MK.MKLOC": {"sdtm_domain": "MK", "sdtm_variable": "MKLOC", "sdtm_label": "Location Used for the Measurement", "codelist": "LOC", "codelist_name": "Anatomical Location", "codelist_code": "C74456"}, "MO.MOLOC": {"sdtm_domain": "MO", "sdtm_variable": "MOLOC", "sdtm_label": "Location Used for Measurement", "codelist": "LOC", "codelist_name": "Anatomical Location", "codelist_code": "C74456"}, "MS.MSLOC": {"sdtm_domain": "MS", "sdtm_variable": "MSLOC", "sdtm_label": "Location Used for the Measurement", "codelist": "LOC", "codelist_name": "Anatomical Location", "codelist_code": "C74456"}, "NV.NVLOC": {"sdtm_domain": "NV", "sdtm_variable": "NVLOC", "sdtm_label": "Location Used for the Measurement", "codelist": "LOC", "codelist_name": "Anatomical Location", "codelist_code": "C74456"}, "OE.OELOC": {"sdtm_domain": "OE", "sdtm_variable": "OELOC", "sdtm_label": "Location Used for the Measurement", "codelist": "LOC", "codelist_name": "Anatomical Location", "codelist_code": "C74456"}, "PE.PELOC": {"sdtm_domain": "PE", "sdtm_variable": "PELOC", "sdtm_label": "Location of Physical Exam Finding", "codelist": "LOC", "codelist_name": "Anatomical Location", "codelist_code": "C74456"}, "PR.PRLOC": {"sdtm_domain": "PR", "sdtm_variable": "PRLOC", "sdtm_label": "Location of Procedure", "codelist": "LOC", "codelist_name": "Anatomical Location", "codelist_code": "C74456"}, "RE.RELOC": {"sdtm_domain": "RE", "sdtm_variable": "RELOC", "sdtm_label": "Location Used for the Measurement", "codelist": "LOC", "codelist_name": "Anatomical Location", "codelist_code": "C74456"}, "RS.RSLOC": {"sdtm_domain": "RS", "sdtm_variable": "RSLOC", "sdtm_label": "Location Used for the Measurement", "codelist": "LOC", "codelist_name": "Anatomical Location", "codelist_code": "C74456"}, "SR.SRLOC": {"sdtm_domain": "SR", "sdtm_variable": "SRLOC", "sdtm_label": "Location Used for Measurement", "codelist": "LOC", "codelist_name": "Anatomical Location", "codelist_code": "C74456"}, "TR.TRLOC": {"sdtm_domain": "TR", "sdtm_variable": "TRLOC", "sdtm_label": "Location Used for the Measurement", "codelist": "LOC", "codelist_name": "Anatomical Location", "codelist_code": "C74456"}, "TU.TULOC": {"sdtm_domain": "TU", "sdtm_variable": "TULOC", "sdtm_label": "Location of the Tumor", "codelist": "LOC", "codelist_name": "Anatomical Location", "codelist_code": "C74456"}, "UR.URLOC": {"sdtm_domain": "UR", "sdtm_variable": "URLOC", "sdtm_label": "Location Used for the Measurement", "codelist": "LOC", "codelist_name": "Anatomical Location", "codelist_code": "C74456"}, "VS.VSLOC": {"sdtm_domain": "VS", "sdtm_variable": "VSLOC", "sdtm_label": "Location of Vital Signs Measurement", "codelist": "LOC", "codelist_name": "Anatomical Location", "codelist_code": "C74456"}, "SUPPRE.LTRGRA6": {"sdtm_domain": "SUPPRE", "sdtm_variable": "LTRGRA6", "sdtm_label": "ATS/ERS 2019 Quality Grade > 6 Years", "codelist": "LTRGRA6", "codelist_name": "ATS/ERS 2019 Quality Grade > 6 Years", "codelist_code": "AZC00470"}, "SUPPRE.LTRGRLE6": {"sdtm_domain": "SUPPRE", "sdtm_variable": "LTRGRLE6", "sdtm_label": "ATS/ERS 2019 Quality Grade <= 6 Years", "codelist": "LTRGRLE6", "codelist_name": "ATS/ERS 2019 Quality Grade <= 6 Years", "codelist_code": "AZC00471"}, "SUPPFA.MARGIN": {"sdtm_domain": "SUPPFA", "sdtm_variable": "MARGIN", "sdtm_label": "Margin Result", "codelist": "MARGIN", "codelist_name": "Margin Result", "codelist_code": "AZC00473"}, "MB.MBTSTDTL": {"sdtm_domain": "MB", "sdtm_variable": "MBTSTDTL", "sdtm_label": "Measurement, Test or Examination Detail", "codelist": "MBFTSDTL", "codelist_name": "Microbiology Findings Test Details", "codelist_code": "C174225"}, "MB.MBSCAT": {"sdtm_domain": "MB", "sdtm_variable": "MBSCAT", "sdtm_label": "Subcategory", "codelist": "MBSCAT", "codelist_name": "Subcategory", "codelist_code": "AZC02294"}, "MB.MBTEST": {"sdtm_domain": "MB", "sdtm_variable": "MBTEST", "sdtm_label": "Microbiology Test or Finding Name", "codelist": "MBTEST", "codelist_name": "Microbiology Test Name", "codelist_code": "C120528"}, "MB.MBTESTCD": {"sdtm_domain": "MB", "sdtm_variable": "MBTESTCD", "sdtm_label": "Microbiology Test or Finding Short Name", "codelist": "MBTESTCD", "codelist_name": "Microbiology Test Code", "codelist_code": "C120527"}, "CO.COEVALID": {"sdtm_domain": "CO", "sdtm_variable": "COEVALID", "sdtm_label": "Evaluator Identifier", "codelist": "MEDEVAL", "codelist_name": "Medical Evaluator Identifier", "codelist_code": "C96777"}, "CV.CVEVALID": {"sdtm_domain": "CV", "sdtm_variable": "CVEVALID", "sdtm_label": "Evaluator Identifier", "codelist": "MEDEVAL", "codelist_name": "Medical Evaluator Identifier", "codelist_code": "C96777"}, "EG.EGEVALID": {"sdtm_domain": "EG", "sdtm_variable": "EGEVALID", "sdtm_label": "Evaluator Identifier", "codelist": "MEDEVAL", "codelist_name": "Medical Evaluator Identifier", "codelist_code": "C96777"}, "FACE.FAEVALID": {"sdtm_domain": "FACE", "sdtm_variable": "FAEVALID", "sdtm_label": "Evaluator Identifier", "codelist": "MEDEVAL", "codelist_name": "Medical Evaluator Identifier", "codelist_code": "C96777"}, "FAYB.FAEVALID": {"sdtm_domain": "FAYB", "sdtm_variable": "FAEVALID", "sdtm_label": "Evaluator Identifier", "codelist": "MEDEVAL", "codelist_name": "Medical Evaluator Identifier", "codelist_code": "C96777"}, "MK.MKEVALID": {"sdtm_domain": "MK", "sdtm_variable": "MKEVALID", "sdtm_label": "Evaluator Identifier", "codelist": "MEDEVAL", "codelist_name": "Medical Evaluator Identifier", "codelist_code": "C96777"}, "MS.MSEVALID": {"sdtm_domain": "MS", "sdtm_variable": "MSEVALID", "sdtm_label": "Evaluator Identifier", "codelist": "MEDEVAL", "codelist_name": "Medical Evaluator Identifier", "codelist_code": "C96777"}, "NV.NVEVALID": {"sdtm_domain": "NV", "sdtm_variable": "NVEVALID", "sdtm_label": "Evaluator Identifier", "codelist": "MEDEVAL", "codelist_name": "Medical Evaluator Identifier", "codelist_code": "C96777"}, "OE.OEEVALID": {"sdtm_domain": "OE", "sdtm_variable": "OEEVALID", "sdtm_label": "Evaluator Identifier", "codelist": "MEDEVAL", "codelist_name": "Medical Evaluator Identifier", "codelist_code": "C96777"}, "RE.REEVALID": {"sdtm_domain": "RE", "sdtm_variable": "REEVALID", "sdtm_label": "Evaluator Identifier", "codelist": "MEDEVAL", "codelist_name": "Medical Evaluator Identifier", "codelist_code": "C96777"}, "RS.RSEVALID": {"sdtm_domain": "RS", "sdtm_variable": "RSEVALID", "sdtm_label": "Evaluator Identifier", "codelist": "MEDEVAL", "codelist_name": "Medical Evaluator Identifier", "codelist_code": "C96777"}, "TR.TREVALID": {"sdtm_domain": "TR", "sdtm_variable": "TREVALID", "sdtm_label": "Evaluator Identifier", "codelist": "MEDEVAL", "codelist_name": "Medical Evaluator Identifier", "codelist_code": "C96777"}, "TU.TUEVALID": {"sdtm_domain": "TU", "sdtm_variable": "TUEVALID", "sdtm_label": "Evaluator Identifier", "codelist": "MEDEVAL", "codelist_name": "Medical Evaluator Identifier", "codelist_code": "C96777"}, "UR.UREVALID": {"sdtm_domain": "UR", "sdtm_variable": "UREVALID", "sdtm_label": "Evaluator Identifier", "codelist": "MEDEVAL", "codelist_name": "Medical Evaluator Identifier", "codelist_code": "C96777"}, "BS.BSMETHOD": {"sdtm_domain": "BS", "sdtm_variable": "BSMETHOD", "sdtm_label": "Method of Test or Examination", "codelist": "METHOD", "codelist_name": "Method", "codelist_code": "C85492"}, "CP.CPMETHOD": {"sdtm_domain": "CP", "sdtm_variable": "CPMETHOD", "sdtm_label": "Method of Test or Examination", "codelist": "METHOD", "codelist_name": "Method", "codelist_code": "C85492"}, "CV.CVMETHOD": {"sdtm_domain": "CV", "sdtm_variable": "CVMETHOD", "sdtm_label": "Method of Test or Examination", "codelist": "METHOD", "codelist_name": "Method", "codelist_code": "C85492"}, "FA.FAMETHOD": {"sdtm_domain": "FA", "sdtm_variable": "FAMETHOD", "sdtm_label": "Method of Test or Examination", "codelist": "METHOD", "codelist_name": "Method", "codelist_code": "C85492"}, "GF.GFMETHOD": {"sdtm_domain": "GF", "sdtm_variable": "GFMETHOD", "sdtm_label": "Method of Test or Examination", "codelist": "METHOD", "codelist_name": "Method", "codelist_code": "C85492"}, "IS.ISMETHOD": {"sdtm_domain": "IS", "sdtm_variable": "ISMETHOD", "sdtm_label": "Method of Test or Examination", "codelist": "METHOD", "codelist_name": "Method", "codelist_code": "C85492"}, "LB.LBMETHOD": {"sdtm_domain": "LB", "sdtm_variable": "LBMETHOD", "sdtm_label": "Method of Test or Examination", "codelist": "METHOD", "codelist_name": "Method", "codelist_code": "C85492"}, "MB.MBMETHOD": {"sdtm_domain": "MB", "sdtm_variable": "MBMETHOD", "sdtm_label": "Method of Test or Examination", "codelist": "METHOD", "codelist_name": "Method", "codelist_code": "C85492"}, "MI.MIMETHOD": {"sdtm_domain": "MI", "sdtm_variable": "MIMETHOD", "sdtm_label": "Method of Test or Examination", "codelist": "METHOD", "codelist_name": "Method", "codelist_code": "C85492"}, "MK.MKMETHOD": {"sdtm_domain": "MK", "sdtm_variable": "MKMETHOD", "sdtm_label": "Method of Test or Examination", "codelist": "METHOD", "codelist_name": "Method", "codelist_code": "C85492"}, "MO.MOMETHOD": {"sdtm_domain": "MO", "sdtm_variable": "MOMETHOD", "sdtm_label": "Method of Procedure Test", "codelist": "METHOD", "codelist_name": "Method", "codelist_code": "C85492"}, "MS.MSMETHOD": {"sdtm_domain": "MS", "sdtm_variable": "MSMETHOD", "sdtm_label": "Method of Test or Examination", "codelist": "METHOD", "codelist_name": "Method", "codelist_code": "C85492"}, "NV.NVMETHOD": {"sdtm_domain": "NV", "sdtm_variable": "NVMETHOD", "sdtm_label": "Method of Test or Examination", "codelist": "METHOD", "codelist_name": "Method", "codelist_code": "C85492"}, "OE.OEMETHOD": {"sdtm_domain": "OE", "sdtm_variable": "OEMETHOD", "sdtm_label": "Method of Test or Examination", "codelist": "METHOD", "codelist_name": "Method", "codelist_code": "C85492"}, "PC.PCMETHOD": {"sdtm_domain": "PC", "sdtm_variable": "PCMETHOD", "sdtm_label": "Method of Test or Examination", "codelist": "METHOD", "codelist_name": "Method", "codelist_code": "C85492"}, "PE.PEMETHOD": {"sdtm_domain": "PE", "sdtm_variable": "PEMETHOD", "sdtm_label": "Method of Test or Examination", "codelist": "METHOD", "codelist_name": "Method", "codelist_code": "C85492"}, "PF.PFMETHOD": {"sdtm_domain": "PF", "sdtm_variable": "PFMETHOD", "sdtm_label": "Method Code for Test", "codelist": "METHOD", "codelist_name": "Method", "codelist_code": "C85492"}, "PG.PGMETHOD": {"sdtm_domain": "PG", "sdtm_variable": "PGMETHOD", "sdtm_label": "Method of Test or Examination", "codelist": "METHOD", "codelist_name": "Method", "codelist_code": "C85492"}, "RE.REMETHOD": {"sdtm_domain": "RE", "sdtm_variable": "REMETHOD", "sdtm_label": "Method of Test or Examination", "codelist": "METHOD", "codelist_name": "Method", "codelist_code": "C85492"}, "SC.SCMETHOD": {"sdtm_domain": "SC", "sdtm_variable": "SCMETHOD", "sdtm_label": "Method of Test or Examination", "codelist": "METHOD", "codelist_name": "Method", "codelist_code": "C85492"}, "SR.SRMETHOD": {"sdtm_domain": "SR", "sdtm_variable": "SRMETHOD", "sdtm_label": "Method of Test or Examination", "codelist": "METHOD", "codelist_name": "Method", "codelist_code": "C85492"}, "TR.TRMETHOD": {"sdtm_domain": "TR", "sdtm_variable": "TRMETHOD", "sdtm_label": "Method used to Identify the Tumor", "codelist": "METHOD", "codelist_name": "Method", "codelist_code": "C85492"}, "TU.TUMETHOD": {"sdtm_domain": "TU", "sdtm_variable": "TUMETHOD", "sdtm_label": "Method of Identification", "codelist": "METHOD", "codelist_name": "Method", "codelist_code": "C85492"}, "UR.URMETHOD": {"sdtm_domain": "UR", "sdtm_variable": "URMETHOD", "sdtm_label": "Method of Test or Examination", "codelist": "METHOD", "codelist_name": "Method", "codelist_code": "C85492"}, "VR.VRMETHOD": {"sdtm_domain": "VR", "sdtm_variable": "VRMETHOD", "sdtm_label": "Method Code for Test", "codelist": "METHOD", "codelist_name": "Method", "codelist_code": "C85492"}, "VS.VSMETHOD": {"sdtm_domain": "VS", "sdtm_variable": "VSMETHOD", "sdtm_label": "Method of Test or Examination", "codelist": "METHOD", "codelist_name": "Method", "codelist_code": "C85492"}, "MH.MHCAT": {"sdtm_domain": "MH", "sdtm_variable": "MHCAT", "sdtm_label": "Category for Medical History", "codelist": "MHCAT", "codelist_name": "Category for Medical History", "codelist_code": "AZC00476"}, "SUPPMH.MHCURM": {"sdtm_domain": "SUPPMH", "sdtm_variable": "MHCURM", "sdtm_label": "Current Medication", "codelist": "MHCURM", "codelist_name": "Current Medication", "codelist_code": "AZC00477"}, "MH.MHEVDTYP": {"sdtm_domain": "MH", "sdtm_variable": "MHEVDTYP", "sdtm_label": "Medical History Event Date Type", "codelist": "MHEDTTYP", "codelist_name": "Medical History Event Date Type", "codelist_code": "C124301"}, "MH.MHLOC": {"sdtm_domain": "MH", "sdtm_variable": "MHLOC", "sdtm_label": "Location of Event", "codelist": "MHLOC", "codelist_name": "Location of Event", "codelist_code": "AZC00478"}, "MH.MHSCAT": {"sdtm_domain": "MH", "sdtm_variable": "MHSCAT", "sdtm_label": "Subcategory for Medical History", "codelist": "MHSCAT", "codelist_name": "Subcategory for Medical History", "codelist_code": "AZC00479"}, "MH.MHSEV": {"sdtm_domain": "MH", "sdtm_variable": "MHSEV", "sdtm_label": "Severity/Intensity", "codelist": "MHSEV", "codelist_name": "Severity/Intensity", "codelist_code": "AZC00480"}, "MI.MICAT": {"sdtm_domain": "MI", "sdtm_variable": "MICAT", "sdtm_label": "Category for Microscopic Finding", "codelist": "MICAT", "codelist_name": "Category for Microscopic Finding", "codelist_code": "AZC02520"}, "MI.MITSTDTL": {"sdtm_domain": "MI", "sdtm_variable": "MITSTDTL", "sdtm_label": "Microscopic Examination Detail", "codelist": "MIFTSDTL", "codelist_name": "Microscopic Findings Test Details", "codelist_code": "C125922"}, "MI.MINAM": {"sdtm_domain": "MI", "sdtm_variable": "MINAM", "sdtm_label": "Laboratory/Vendor Name", "codelist": "MINAM", "codelist_name": "Laboratory/Vendor Name", "codelist_code": "AZC02630"}, "MI.MIREASND": {"sdtm_domain": "MI", "sdtm_variable": "MIREASND", "sdtm_label": "Reason Not Done", "codelist": "MIREASND", "codelist_name": "Reason Not Done", "codelist_code": "AZC02577"}, "MI.MIRESSCL": {"sdtm_domain": "MI", "sdtm_variable": "MIRESSCL", "sdtm_label": "Result Scale", "codelist": "MIRESSCL", "codelist_name": "Result Scale", "codelist_code": "AZC02610"}, "MI.MIRESTYP": {"sdtm_domain": "MI", "sdtm_variable": "MIRESTYP", "sdtm_label": "Result Type", "codelist": "MIRESTYP", "codelist_name": "Result Type", "codelist_code": "AZC02693"}, "MI.MITEST": {"sdtm_domain": "MI", "sdtm_variable": "MITEST", "sdtm_label": "Microscopic Examination Name", "codelist": "MITS", "codelist_name": "SDTM Microscopic Findings Test Name", "codelist_code": "C132262"}, "MI.MITESTCD": {"sdtm_domain": "MI", "sdtm_variable": "MITESTCD", "sdtm_label": "Microscopic Examination Short Name", "codelist": "MITSCD", "codelist_name": "SDTM Microscopic Findings Test Code", "codelist_code": "C132263"}, "SUPPAE.MODULE": {"sdtm_domain": "SUPPAE", "sdtm_variable": "MODULE", "sdtm_label": "Source Module Short Name", "codelist": "MODULE", "codelist_name": "Source Module Short Name", "codelist_code": "AZC02452"}, "SUPPLC.MODULE": {"sdtm_domain": "SUPPLC", "sdtm_variable": "MODULE", "sdtm_label": "Source Module Short Name", "codelist": "MODULE", "codelist_name": "Source Module Short Name", "codelist_code": "AZC02452"}, "SUPPFA.MOLTEST": {"sdtm_domain": "SUPPFA", "sdtm_variable": "MOLTEST", "sdtm_label": "Sample Molecularly Tested", "codelist": "MOLTEST", "codelist_name": "Sample Molecularly Tested", "codelist_code": "AZC00485"}, "SUPPCM.MOMAMTH": {"sdtm_domain": "SUPPCM", "sdtm_variable": "MOMAMTH", "sdtm_label": "Motion Management Method", "codelist": "MOMAMTH", "codelist_name": "Motion Management Method", "codelist_code": "AZC00486"}, "SUPPCM.MOXDEL": {"sdtm_domain": "SUPPCM", "sdtm_variable": "MOXDEL", "sdtm_label": "Method Oxygen Provided", "codelist": "MOXDEL", "codelist_name": "Method Oxygen Provided", "codelist_code": "AZC00487"}, "SUPPEC.MOXDEL": {"sdtm_domain": "SUPPEC", "sdtm_variable": "MOXDEL", "sdtm_label": "Method Oxygen Provided", "codelist": "MOXDEL", "codelist_name": "Method Oxygen Provided", "codelist_code": "AZC00487"}, "SUPPLB.MRDTEST": {"sdtm_domain": "SUPPLB", "sdtm_variable": "MRDTEST", "sdtm_label": "MRD Test Name", "codelist": "MRDTEST", "codelist_name": "MRD Test Name", "codelist_code": "AZC02580"}, "MS.MSSTRESC": {"sdtm_domain": "MS", "sdtm_variable": "MSSTRESC", "sdtm_label": "Result or Finding in Standard Format", "codelist": "MSSTRESC", "codelist_name": "Microbiology Susceptibility Test Standard Character Result", "codelist_code": "C213530"}, "MS.MSTEST": {"sdtm_domain": "MS", "sdtm_variable": "MSTEST", "sdtm_label": "Name of Assessment", "codelist": "MSTEST", "codelist_name": "Microbiology Susceptibility Test Name", "codelist_code": "C128687"}, "MS.MSTESTCD": {"sdtm_domain": "MS", "sdtm_variable": "MSTESTCD", "sdtm_label": "Short Name of Assessment", "codelist": "MSTESTCD", "codelist_name": "Microbiology Susceptibility Test Code", "codelist_code": "C128688"}, "MK.MKTEST": {"sdtm_domain": "MK", "sdtm_variable": "MKTEST", "sdtm_label": "Name of Musculoskeletal Test", "codelist": "MUSCTS", "codelist_name": "Musculoskeletal System Finding Test Name", "codelist_code": "C127270"}, "MK.MKTESTCD": {"sdtm_domain": "MK", "sdtm_variable": "MKTESTCD", "sdtm_label": "Short Name of Musculoskeletal Test", "codelist": "MUSCTSCD", "codelist_name": "Musculoskeletal System Finding Test Code", "codelist_code": "C127269"}, "DS.DSDECOD": {"sdtm_domain": "DS", "sdtm_variable": "DSDECOD", "sdtm_label": "Standardized Disposition Term", "codelist": "NCOMPLT", "codelist_name": "Completion/Reason for Non-Completion", "codelist_code": "C66727"}, "AG.AGSTAT": {"sdtm_domain": "AG", "sdtm_variable": "AGSTAT", "sdtm_label": "Completion Status", "codelist": "ND", "codelist_name": "Not Done", "codelist_code": "C66789"}, "BS.BSSTAT": {"sdtm_domain": "BS", "sdtm_variable": "BSSTAT", "sdtm_label": "Completion Status", "codelist": "ND", "codelist_name": "Not Done", "codelist_code": "C66789"}, "CE.CESTAT": {"sdtm_domain": "CE", "sdtm_variable": "CESTAT", "sdtm_label": "Completion Status", "codelist": "ND", "codelist_name": "Not Done", "codelist_code": "C66789"}, "CM.CMSTAT": {"sdtm_domain": "CM", "sdtm_variable": "CMSTAT", "sdtm_label": "Completion Status", "codelist": "ND", "codelist_name": "Not Done", "codelist_code": "C66789"}, "CP.CPSTAT": {"sdtm_domain": "CP", "sdtm_variable": "CPSTAT", "sdtm_label": "Completion Status", "codelist": "ND", "codelist_name": "Not Done", "codelist_code": "C66789"}, "CV.CVSTAT": {"sdtm_domain": "CV", "sdtm_variable": "CVSTAT", "sdtm_label": "Completion Status", "codelist": "ND", "codelist_name": "Not Done", "codelist_code": "C66789"}, "DA.DASTAT": {"sdtm_domain": "DA", "sdtm_variable": "DASTAT", "sdtm_label": "Completion Status", "codelist": "ND", "codelist_name": "Not Done", "codelist_code": "C66789"}, "DE.DESTAT": {"sdtm_domain": "DE", "sdtm_variable": "DESTAT", "sdtm_label": "Device Event Collection Status", "codelist": "ND", "codelist_name": "Not Done", "codelist_code": "C66789"}, "EG.EGSTAT": {"sdtm_domain": "EG", "sdtm_variable": "EGSTAT", "sdtm_label": "Completion Status", "codelist": "ND", "codelist_name": "Not Done", "codelist_code": "C66789"}, "FA.FASTAT": {"sdtm_domain": "FA", "sdtm_variable": "FASTAT", "sdtm_label": "Completion Status", "codelist": "ND", "codelist_name": "Not Done", "codelist_code": "C66789"}, "FACE.FASTAT": {"sdtm_domain": "FACE", "sdtm_variable": "FASTAT", "sdtm_label": "Completion Status", "codelist": "ND", "codelist_name": "Not Done", "codelist_code": "C66789"}, "FAPR.FASTAT": {"sdtm_domain": "FAPR", "sdtm_variable": "FASTAT", "sdtm_label": "Completion Status", "codelist": "ND", "codelist_name": "Not Done", "codelist_code": "C66789"}, "FT.FTSTAT": {"sdtm_domain": "FT", "sdtm_variable": "FTSTAT", "sdtm_label": "Completion Status", "codelist": "ND", "codelist_name": "Not Done", "codelist_code": "C66789"}, "GF.GFSTAT": {"sdtm_domain": "GF", "sdtm_variable": "GFSTAT", "sdtm_label": "Completion Status", "codelist": "ND", "codelist_name": "Not Done", "codelist_code": "C66789"}, "HO.HOSTAT": {"sdtm_domain": "HO", "sdtm_variable": "HOSTAT", "sdtm_label": "Completion Status", "codelist": "ND", "codelist_name": "Not Done", "codelist_code": "C66789"}, "IS.ISSTAT": {"sdtm_domain": "IS", "sdtm_variable": "ISSTAT", "sdtm_label": "Completion Status", "codelist": "ND", "codelist_name": "Not Done", "codelist_code": "C66789"}, "LB.LBSTAT": {"sdtm_domain": "LB", "sdtm_variable": "LBSTAT", "sdtm_label": "Completion Status", "codelist": "ND", "codelist_name": "Not Done", "codelist_code": "C66789"}, "MB.MBSTAT": {"sdtm_domain": "MB", "sdtm_variable": "MBSTAT", "sdtm_label": "Completion Status", "codelist": "ND", "codelist_name": "Not Done", "codelist_code": "C66789"}, "MH.MHSTAT": {"sdtm_domain": "MH", "sdtm_variable": "MHSTAT", "sdtm_label": "Completion Status", "codelist": "ND", "codelist_name": "Not Done", "codelist_code": "C66789"}, "MI.MISTAT": {"sdtm_domain": "MI", "sdtm_variable": "MISTAT", "sdtm_label": "Completion Status", "codelist": "ND", "codelist_name": "Not Done", "codelist_code": "C66789"}, "MK.MKSTAT": {"sdtm_domain": "MK", "sdtm_variable": "MKSTAT", "sdtm_label": "Completion Status", "codelist": "ND", "codelist_name": "Not Done", "codelist_code": "C66789"}, "ML.MLSTAT": {"sdtm_domain": "ML", "sdtm_variable": "MLSTAT", "sdtm_label": "Completion Status", "codelist": "ND", "codelist_name": "Not Done", "codelist_code": "C66789"}, "MO.MOSTAT": {"sdtm_domain": "MO", "sdtm_variable": "MOSTAT", "sdtm_label": "Completion Status", "codelist": "ND", "codelist_name": "Not Done", "codelist_code": "C66789"}, "MS.MSSTAT": {"sdtm_domain": "MS", "sdtm_variable": "MSSTAT", "sdtm_label": "Completion Status", "codelist": "ND", "codelist_name": "Not Done", "codelist_code": "C66789"}, "NV.NVSTAT": {"sdtm_domain": "NV", "sdtm_variable": "NVSTAT", "sdtm_label": "Completion Status", "codelist": "ND", "codelist_name": "Not Done", "codelist_code": "C66789"}, "OE.OESTAT": {"sdtm_domain": "OE", "sdtm_variable": "OESTAT", "sdtm_label": "Completion Status", "codelist": "ND", "codelist_name": "Not Done", "codelist_code": "C66789"}, "PC.PCSTAT": {"sdtm_domain": "PC", "sdtm_variable": "PCSTAT", "sdtm_label": "Completion Status", "codelist": "ND", "codelist_name": "Not Done", "codelist_code": "C66789"}, "PE.PESTAT": {"sdtm_domain": "PE", "sdtm_variable": "PESTAT", "sdtm_label": "Completion Status", "codelist": "ND", "codelist_name": "Not Done", "codelist_code": "C66789"}, "PF.PFSTAT": {"sdtm_domain": "PF", "sdtm_variable": "PFSTAT", "sdtm_label": "Test Status", "codelist": "ND", "codelist_name": "Not Done", "codelist_code": "C66789"}, "PG.PGSTAT": {"sdtm_domain": "PG", "sdtm_variable": "PGSTAT", "sdtm_label": "Completion Status", "codelist": "ND", "codelist_name": "Not Done", "codelist_code": "C66789"}, "PP.PPSTAT": {"sdtm_domain": "PP", "sdtm_variable": "PPSTAT", "sdtm_label": "Completion Status", "codelist": "ND", "codelist_name": "Not Done", "codelist_code": "C66789"}, "QS.QSSTAT": {"sdtm_domain": "QS", "sdtm_variable": "QSSTAT", "sdtm_label": "Completion Status", "codelist": "ND", "codelist_name": "Not Done", "codelist_code": "C66789"}, "RE.RESTAT": {"sdtm_domain": "RE", "sdtm_variable": "RESTAT", "sdtm_label": "Completion Status", "codelist": "ND", "codelist_name": "Not Done", "codelist_code": "C66789"}, "RP.RPSTAT": {"sdtm_domain": "RP", "sdtm_variable": "RPSTAT", "sdtm_label": "Completion Status", "codelist": "ND", "codelist_name": "Not Done", "codelist_code": "C66789"}, "RS.RSSTAT": {"sdtm_domain": "RS", "sdtm_variable": "RSSTAT", "sdtm_label": "Completion Status", "codelist": "ND", "codelist_name": "Not Done", "codelist_code": "C66789"}, "SC.SCSTAT": {"sdtm_domain": "SC", "sdtm_variable": "SCSTAT", "sdtm_label": "Completion Status", "codelist": "ND", "codelist_name": "Not Done", "codelist_code": "C66789"}, "SR.SRSTAT": {"sdtm_domain": "SR", "sdtm_variable": "SRSTAT", "sdtm_label": "Completion Status", "codelist": "ND", "codelist_name": "Not Done", "codelist_code": "C66789"}, "SS.SSSTAT": {"sdtm_domain": "SS", "sdtm_variable": "SSSTAT", "sdtm_label": "Completion Status", "codelist": "ND", "codelist_name": "Not Done", "codelist_code": "C66789"}, "SU.SUSTAT": {"sdtm_domain": "SU", "sdtm_variable": "SUSTAT", "sdtm_label": "Completion Status", "codelist": "ND", "codelist_name": "Not Done", "codelist_code": "C66789"}, "TR.TRSTAT": {"sdtm_domain": "TR", "sdtm_variable": "TRSTAT", "sdtm_label": "Completion Status", "codelist": "ND", "codelist_name": "Not Done", "codelist_code": "C66789"}, "TU.TUSTAT": {"sdtm_domain": "TU", "sdtm_variable": "TUSTAT", "sdtm_label": "Completion Status", "codelist": "ND", "codelist_name": "Not Done", "codelist_code": "C66789"}, "UR.URSTAT": {"sdtm_domain": "UR", "sdtm_variable": "URSTAT", "sdtm_label": "Completion Status", "codelist": "ND", "codelist_name": "Not Done", "codelist_code": "C66789"}, "VR.VRSTAT": {"sdtm_domain": "VR", "sdtm_variable": "VRSTAT", "sdtm_label": "Pharmacogenomics Status", "codelist": "ND", "codelist_name": "Not Done", "codelist_code": "C66789"}, "VS.VSSTAT": {"sdtm_domain": "VS", "sdtm_variable": "VSSTAT", "sdtm_label": "Completion Status", "codelist": "ND", "codelist_name": "Not Done", "codelist_code": "C66789"}, "SUPPPR.NECKDISS": {"sdtm_domain": "SUPPPR", "sdtm_variable": "NECKDISS", "sdtm_label": "Neck Dissection", "codelist": "NECKDISS", "codelist_name": "Neck Dissection", "codelist_code": "AZC02361"}, "SUPPPR.NECKSDSS": {"sdtm_domain": "SUPPPR", "sdtm_variable": "NECKSDSS", "sdtm_label": "Neck Dissection Side", "codelist": "NECKSDSS", "codelist_name": "Neck Dissection Side", "codelist_code": "AZC02362"}, "SUPPTU.NLRFL": {"sdtm_domain": "SUPPTU", "sdtm_variable": "NLRFL", "sdtm_label": "New Lesion Radiation Field Location", "codelist": "NLRFL", "codelist_name": "New Lesion Radiation Field Location", "codelist_code": "AZC02429"}, "CP.CPNRIND": {"sdtm_domain": "CP", "sdtm_variable": "CPNRIND", "sdtm_label": "Reference Range Indicator", "codelist": "NRIND", "codelist_name": "Reference Range Indicator", "codelist_code": "C78736"}, "EG.EGNRIND": {"sdtm_domain": "EG", "sdtm_variable": "EGNRIND", "sdtm_label": "Normal/Reference Range Indicator", "codelist": "NRIND", "codelist_name": "Reference Range Indicator", "codelist_code": "C78736"}, "IS.ISNRIND": {"sdtm_domain": "IS", "sdtm_variable": "ISNRIND", "sdtm_label": "Reference Range Indicator", "codelist": "NRIND", "codelist_name": "Reference Range Indicator", "codelist_code": "C78736"}, "LB.LBNRIND": {"sdtm_domain": "LB", "sdtm_variable": "LBNRIND", "sdtm_label": "Reference Range Indicator", "codelist": "NRIND", "codelist_name": "Reference Range Indicator", "codelist_code": "C78736"}, "MS.MSNRIND": {"sdtm_domain": "MS", "sdtm_variable": "MSNRIND", "sdtm_label": "Normal/Reference Range Indicator", "codelist": "NRIND", "codelist_name": "Reference Range Indicator", "codelist_code": "C78736"}, "OE.OENRIND": {"sdtm_domain": "OE", "sdtm_variable": "OENRIND", "sdtm_label": "Normal/Reference Range Indicator", "codelist": "NRIND", "codelist_name": "Reference Range Indicator", "codelist_code": "C78736"}, "VS.VSNRIND": {"sdtm_domain": "VS", "sdtm_variable": "VSNRIND", "sdtm_label": "Normal/Reference Range Indicator", "codelist": "NRIND", "codelist_name": "Reference Range Indicator", "codelist_code": "C78736"}, "SUPPSS.NSREAS": {"sdtm_domain": "SUPPSS", "sdtm_variable": "NSREAS", "sdtm_label": "Reason For Not Searching", "codelist": "NSREAS", "codelist_name": "Reason for not Searching", "codelist_code": "AZC00491"}, "NV.NVTEST": {"sdtm_domain": "NV", "sdtm_variable": "NVTEST", "sdtm_label": "Name of Nervous System Test", "codelist": "NVTEST", "codelist_name": "Nervous System Findings Test Name", "codelist_code": "C116103"}, "NV.NVTESTCD": {"sdtm_domain": "NV", "sdtm_variable": "NVTESTCD", "sdtm_label": "Short Name of Nervous System Test", "codelist": "NVTESTCD", "codelist_name": "Nervous System Findings Test Code", "codelist_code": "C116104"}, "AE.AECONTRT": {"sdtm_domain": "AE", "sdtm_variable": "AECONTRT", "sdtm_label": "Concomitant or Additional Trtmnt Given", "codelist": "NY", "codelist_name": "No Yes Response", "codelist_code": "C66742"}, "AE.AEPRESP": {"sdtm_domain": "AE", "sdtm_variable": "AEPRESP", "sdtm_label": "Pre-Specified Adverse Event", "codelist": "NY", "codelist_name": "No Yes Response", "codelist_code": "C66742"}, "AE.AESCAN": {"sdtm_domain": "AE", "sdtm_variable": "AESCAN", "sdtm_label": "Involves Cancer", "codelist": "NY", "codelist_name": "No Yes Response", "codelist_code": "C66742"}, "AE.AESCONG": {"sdtm_domain": "AE", "sdtm_variable": "AESCONG", "sdtm_label": "Congenital Anomaly or Birth Defect", "codelist": "NY", "codelist_name": "No Yes Response", "codelist_code": "C66742"}, "AE.AESDISAB": {"sdtm_domain": "AE", "sdtm_variable": "AESDISAB", "sdtm_label": "Persist or Signif Disability/Incapacity", "codelist": "NY", "codelist_name": "No Yes Response", "codelist_code": "C66742"}, "AE.AESDTH": {"sdtm_domain": "AE", "sdtm_variable": "AESDTH", "sdtm_label": "Results in Death", "codelist": "NY", "codelist_name": "No Yes Response", "codelist_code": "C66742"}, "AE.AESER": {"sdtm_domain": "AE", "sdtm_variable": "AESER", "sdtm_label": "Serious Event", "codelist": "NY", "codelist_name": "No Yes Response", "codelist_code": "C66742"}, "AE.AESHOSP": {"sdtm_domain": "AE", "sdtm_variable": "AESHOSP", "sdtm_label": "Requires or Prolongs Hospitalization", "codelist": "NY", "codelist_name": "No Yes Response", "codelist_code": "C66742"}, "AE.AESINTV": {"sdtm_domain": "AE", "sdtm_variable": "AESINTV", "sdtm_label": "Needs Intervention to Prevent Impairment", "codelist": "NY", "codelist_name": "No Yes Response", "codelist_code": "C66742"}, "AE.AESLIFE": {"sdtm_domain": "AE", "sdtm_variable": "AESLIFE", "sdtm_label": "Is Life Threatening", "codelist": "NY", "codelist_name": "No Yes Response", "codelist_code": "C66742"}, "AE.AESMIE": {"sdtm_domain": "AE", "sdtm_variable": "AESMIE", "sdtm_label": "Other Medically Important Serious Event", "codelist": "NY", "codelist_name": "No Yes Response", "codelist_code": "C66742"}, "AE.AESOD": {"sdtm_domain": "AE", "sdtm_variable": "AESOD", "sdtm_label": "Occurred with Overdose", "codelist": "NY", "codelist_name": "No Yes Response", "codelist_code": "C66742"}, "AE.AEUNANT": {"sdtm_domain": "AE", "sdtm_variable": "AEUNANT", "sdtm_label": "Unanticipated Adverse Device Effect", "codelist": "NY", "codelist_name": "No Yes Response", "codelist_code": "C66742"}, "AG.AGOCCUR": {"sdtm_domain": "AG", "sdtm_variable": "AGOCCUR", "sdtm_label": "AG Occurrence", "codelist": "NY", "codelist_name": "No Yes Response", "codelist_code": "C66742"}, "AG.AGPRESP": {"sdtm_domain": "AG", "sdtm_variable": "AGPRESP", "sdtm_label": "AG Pre-Specified", "codelist": "NY", "codelist_name": "No Yes Response", "codelist_code": "C66742"}, "BS.BSBLFL": {"sdtm_domain": "BS", "sdtm_variable": "BSBLFL", "sdtm_label": "Baseline Flag", "codelist": "NY", "codelist_name": "No Yes Response", "codelist_code": "C66742"}, "CE.CEOCCUR": {"sdtm_domain": "CE", "sdtm_variable": "CEOCCUR", "sdtm_label": "Clinical Event Occurrence", "codelist": "NY", "codelist_name": "No Yes Response", "codelist_code": "C66742"}, "CE.CEPRESP": {"sdtm_domain": "CE", "sdtm_variable": "CEPRESP", "sdtm_label": "Clinical Event Pre-specified", "codelist": "NY", "codelist_name": "No Yes Response", "codelist_code": "C66742"}, "CM.CMOCCUR": {"sdtm_domain": "CM", "sdtm_variable": "CMOCCUR", "sdtm_label": "CM Occurrence", "codelist": "NY", "codelist_name": "No Yes Response", "codelist_code": "C66742"}, "CM.CMPRESP": {"sdtm_domain": "CM", "sdtm_variable": "CMPRESP", "sdtm_label": "CM Pre-specified", "codelist": "NY", "codelist_name": "No Yes Response", "codelist_code": "C66742"}, "CP.CPBLFL": {"sdtm_domain": "CP", "sdtm_variable": "CPBLFL", "sdtm_label": "Baseline Flag", "codelist": "NY", "codelist_name": "No Yes Response", "codelist_code": "C66742"}, "CP.CPCLSIG": {"sdtm_domain": "CP", "sdtm_variable": "CPCLSIG", "sdtm_label": "Clinically Significant, Collected", "codelist": "NY", "codelist_name": "No Yes Response", "codelist_code": "C66742"}, "CP.CPDRVFL": {"sdtm_domain": "CP", "sdtm_variable": "CPDRVFL", "sdtm_label": "Derived Flag", "codelist": "NY", "codelist_name": "No Yes Response", "codelist_code": "C66742"}, "CP.CPLOBXFL": {"sdtm_domain": "CP", "sdtm_variable": "CPLOBXFL", "sdtm_label": "Last Observation Before Exposure Flag", "codelist": "NY", "codelist_name": "No Yes Response", "codelist_code": "C66742"}, "CV.CVBLFL": {"sdtm_domain": "CV", "sdtm_variable": "CVBLFL", "sdtm_label": "Baseline Flag", "codelist": "NY", "codelist_name": "No Yes Response", "codelist_code": "C66742"}, "CV.CVDRVFL": {"sdtm_domain": "CV", "sdtm_variable": "CVDRVFL", "sdtm_label": "Derived Flag", "codelist": "NY", "codelist_name": "No Yes Response", "codelist_code": "C66742"}, "CV.CVLOBXFL": {"sdtm_domain": "CV", "sdtm_variable": "CVLOBXFL", "sdtm_label": "Last Observation Before Exposure Flag", "codelist": "NY", "codelist_name": "No Yes Response", "codelist_code": "C66742"}, "DE.DEOCCUR": {"sdtm_domain": "DE", "sdtm_variable": "DEOCCUR", "sdtm_label": "Device Event Occurrence", "codelist": "NY", "codelist_name": "No Yes Response", "codelist_code": "C66742"}, "DE.DEPRESP": {"sdtm_domain": "DE", "sdtm_variable": "DEPRESP", "sdtm_label": "Pre-Specified Device Event", "codelist": "NY", "codelist_name": "No Yes Response", "codelist_code": "C66742"}, "DM.DTHFL": {"sdtm_domain": "DM", "sdtm_variable": "DTHFL", "sdtm_label": "Subject Death Flag", "codelist": "NY", "codelist_name": "No Yes Response", "codelist_code": "C66742"}, "EC.ECFAST": {"sdtm_domain": "EC", "sdtm_variable": "ECFAST", "sdtm_label": "Fasting Status", "codelist": "NY", "codelist_name": "No Yes Response", "codelist_code": "C66742"}, "EC.ECOCCUR": {"sdtm_domain": "EC", "sdtm_variable": "ECOCCUR", "sdtm_label": "Occurrence", "codelist": "NY", "codelist_name": "No Yes Response", "codelist_code": "C66742"}, "EC.ECPRESP": {"sdtm_domain": "EC", "sdtm_variable": "ECPRESP", "sdtm_label": "Pre-Specified", "codelist": "NY", "codelist_name": "No Yes Response", "codelist_code": "C66742"}, "EG.EGBLFL": {"sdtm_domain": "EG", "sdtm_variable": "EGBLFL", "sdtm_label": "Baseline Flag", "codelist": "NY", "codelist_name": "No Yes Response", "codelist_code": "C66742"}, "EG.EGCLSIG": {"sdtm_domain": "EG", "sdtm_variable": "EGCLSIG", "sdtm_label": "Clinically Significant, Collected", "codelist": "NY", "codelist_name": "No Yes Response", "codelist_code": "C66742"}, "EG.EGDRVFL": {"sdtm_domain": "EG", "sdtm_variable": "EGDRVFL", "sdtm_label": "Derived Flag", "codelist": "NY", "codelist_name": "No Yes Response", "codelist_code": "C66742"}, "EG.EGLOBXFL": {"sdtm_domain": "EG", "sdtm_variable": "EGLOBXFL", "sdtm_label": "Last Observation Before Exposure Flag", "codelist": "NY", "codelist_name": "No Yes Response", "codelist_code": "C66742"}, "EX.EXFAST": {"sdtm_domain": "EX", "sdtm_variable": "EXFAST", "sdtm_label": "Fasting Status", "codelist": "NY", "codelist_name": "No Yes Response", "codelist_code": "C66742"}, "FA.FABLFL": {"sdtm_domain": "FA", "sdtm_variable": "FABLFL", "sdtm_label": "Baseline Flag", "codelist": "NY", "codelist_name": "No Yes Response", "codelist_code": "C66742"}, "FA.FALOBXFL": {"sdtm_domain": "FA", "sdtm_variable": "FALOBXFL", "sdtm_label": "Last Observation Before Exposure Flag", "codelist": "NY", "codelist_name": "No Yes Response", "codelist_code": "C66742"}, "FA.FASPCUFL": {"sdtm_domain": "FA", "sdtm_variable": "FASPCUFL", "sdtm_label": "Specimen Usability for the Test", "codelist": "NY", "codelist_name": "No Yes Response", "codelist_code": "C66742"}, "FAPR.FACLSIG": {"sdtm_domain": "FAPR", "sdtm_variable": "FACLSIG", "sdtm_label": "Clinical Significance", "codelist": "NY", "codelist_name": "No Yes Response", "codelist_code": "C66742"}, "FT.FTBLFL": {"sdtm_domain": "FT", "sdtm_variable": "FTBLFL", "sdtm_label": "Baseline Flag", "codelist": "NY", "codelist_name": "No Yes Response", "codelist_code": "C66742"}, "FT.FTDRVFL": {"sdtm_domain": "FT", "sdtm_variable": "FTDRVFL", "sdtm_label": "Derived Flag", "codelist": "NY", "codelist_name": "No Yes Response", "codelist_code": "C66742"}, "FT.FTLOBXFL": {"sdtm_domain": "FT", "sdtm_variable": "FTLOBXFL", "sdtm_label": "Last Observation Before Exposure Flag", "codelist": "NY", "codelist_name": "No Yes Response", "codelist_code": "C66742"}, "GF.GFBLFL": {"sdtm_domain": "GF", "sdtm_variable": "GFBLFL", "sdtm_label": "Baseline Flag", "codelist": "NY", "codelist_name": "No Yes Response", "codelist_code": "C66742"}, "GF.GFDRVFL": {"sdtm_domain": "GF", "sdtm_variable": "GFDRVFL", "sdtm_label": "Derived Flag", "codelist": "NY", "codelist_name": "No Yes Response", "codelist_code": "C66742"}, "HO.HOOCCUR": {"sdtm_domain": "HO", "sdtm_variable": "HOOCCUR", "sdtm_label": "Healthcare Encounter Occurrence", "codelist": "NY", "codelist_name": "No Yes Response", "codelist_code": "C66742"}, "HO.HOPRESP": {"sdtm_domain": "HO", "sdtm_variable": "HOPRESP", "sdtm_label": "Pre-Specified Healthcare Encounter", "codelist": "NY", "codelist_name": "No Yes Response", "codelist_code": "C66742"}, "IE.IEORRES": {"sdtm_domain": "IE", "sdtm_variable": "IEORRES", "sdtm_label": "I/E Criterion Original Result", "codelist": "NY", "codelist_name": "No Yes Response", "codelist_code": "C66742"}, "IE.IESTRESC": {"sdtm_domain": "IE", "sdtm_variable": "IESTRESC", "sdtm_label": "I/E Criterion Result in Std Format", "codelist": "NY", "codelist_name": "No Yes Response", "codelist_code": "C66742"}, "IS.ISBLFL": {"sdtm_domain": "IS", "sdtm_variable": "ISBLFL", "sdtm_label": "Baseline Flag", "codelist": "NY", "codelist_name": "No Yes Response", "codelist_code": "C66742"}, "IS.ISDRVFL": {"sdtm_domain": "IS", "sdtm_variable": "ISDRVFL", "sdtm_label": "Derived Flag", "codelist": "NY", "codelist_name": "No Yes Response", "codelist_code": "C66742"}, "IS.ISLOBXFL": {"sdtm_domain": "IS", "sdtm_variable": "ISLOBXFL", "sdtm_label": "Last Observation Before Exposure Flag", "codelist": "NY", "codelist_name": "No Yes Response", "codelist_code": "C66742"}, "IS.ISSPCUFL": {"sdtm_domain": "IS", "sdtm_variable": "ISSPCUFL", "sdtm_label": "Specimen Usability for the Test", "codelist": "NY", "codelist_name": "No Yes Response", "codelist_code": "C66742"}, "LB.LBBLFL": {"sdtm_domain": "LB", "sdtm_variable": "LBBLFL", "sdtm_label": "Baseline Flag", "codelist": "NY", "codelist_name": "No Yes Response", "codelist_code": "C66742"}, "LB.LBCLSIG": {"sdtm_domain": "LB", "sdtm_variable": "LBCLSIG", "sdtm_label": "Clinically Significant, Collected", "codelist": "NY", "codelist_name": "No Yes Response", "codelist_code": "C66742"}, "LB.LBDRVFL": {"sdtm_domain": "LB", "sdtm_variable": "LBDRVFL", "sdtm_label": "Derived Flag", "codelist": "NY", "codelist_name": "No Yes Response", "codelist_code": "C66742"}, "LB.LBFAST": {"sdtm_domain": "LB", "sdtm_variable": "LBFAST", "sdtm_label": "Fasting Status", "codelist": "NY", "codelist_name": "No Yes Response", "codelist_code": "C66742"}, "LB.LBLOBXFL": {"sdtm_domain": "LB", "sdtm_variable": "LBLOBXFL", "sdtm_label": "Last Observation Before Exposure Flag", "codelist": "NY", "codelist_name": "No Yes Response", "codelist_code": "C66742"}, "LB.LBPTFL": {"sdtm_domain": "LB", "sdtm_variable": "LBPTFL", "sdtm_label": "Point in Time Flag", "codelist": "NY", "codelist_name": "No Yes Response", "codelist_code": "C66742"}, "LB.LBSPCUFL": {"sdtm_domain": "LB", "sdtm_variable": "LBSPCUFL", "sdtm_label": "Specimen Usability for the Test", "codelist": "NY", "codelist_name": "No Yes Response", "codelist_code": "C66742"}, "LC.LCFAST": {"sdtm_domain": "LC", "sdtm_variable": "LCFAST", "sdtm_label": "Fasting Status", "codelist": "NY", "codelist_name": "No Yes Response", "codelist_code": "C66742"}, "MB.MBBLFL": {"sdtm_domain": "MB", "sdtm_variable": "MBBLFL", "sdtm_label": "Baseline Flag", "codelist": "NY", "codelist_name": "No Yes Response", "codelist_code": "C66742"}, "MB.MBDRVFL": {"sdtm_domain": "MB", "sdtm_variable": "MBDRVFL", "sdtm_label": "Derived Flag", "codelist": "NY", "codelist_name": "No Yes Response", "codelist_code": "C66742"}, "MB.MBFAST": {"sdtm_domain": "MB", "sdtm_variable": "MBFAST", "sdtm_label": "Fasting Status", "codelist": "NY", "codelist_name": "No Yes Response", "codelist_code": "C66742"}, "MB.MBLOBXFL": {"sdtm_domain": "MB", "sdtm_variable": "MBLOBXFL", "sdtm_label": "Last Observation Before Exposure Flag", "codelist": "NY", "codelist_name": "No Yes Response", "codelist_code": "C66742"}, "MH.MHOCCUR": {"sdtm_domain": "MH", "sdtm_variable": "MHOCCUR", "sdtm_label": "Medical History Occurrence", "codelist": "NY", "codelist_name": "No Yes Response", "codelist_code": "C66742"}, "MH.MHPRESP": {"sdtm_domain": "MH", "sdtm_variable": "MHPRESP", "sdtm_label": "Medical History Event Pre-Specified", "codelist": "NY", "codelist_name": "No Yes Response", "codelist_code": "C66742"}, "MI.MIBLFL": {"sdtm_domain": "MI", "sdtm_variable": "MIBLFL", "sdtm_label": "Baseline Flag", "codelist": "NY", "codelist_name": "No Yes Response", "codelist_code": "C66742"}, "MI.MILOBXFL": {"sdtm_domain": "MI", "sdtm_variable": "MILOBXFL", "sdtm_label": "Last Observation Before Exposure Flag", "codelist": "NY", "codelist_name": "No Yes Response", "codelist_code": "C66742"}, "MK.MKBLFL": {"sdtm_domain": "MK", "sdtm_variable": "MKBLFL", "sdtm_label": "Baseline Flag", "codelist": "NY", "codelist_name": "No Yes Response", "codelist_code": "C66742"}, "MK.MKDRVFL": {"sdtm_domain": "MK", "sdtm_variable": "MKDRVFL", "sdtm_label": "Derived Flag", "codelist": "NY", "codelist_name": "No Yes Response", "codelist_code": "C66742"}, "MK.MKLOBXFL": {"sdtm_domain": "MK", "sdtm_variable": "MKLOBXFL", "sdtm_label": "Last Observation Before Exposure Flag", "codelist": "NY", "codelist_name": "No Yes Response", "codelist_code": "C66742"}, "ML.MLFAST": {"sdtm_domain": "ML", "sdtm_variable": "MLFAST", "sdtm_label": "Fasting Status", "codelist": "NY", "codelist_name": "No Yes Response", "codelist_code": "C66742"}, "ML.MLOCCUR": {"sdtm_domain": "ML", "sdtm_variable": "MLOCCUR", "sdtm_label": "ML Occurrence", "codelist": "NY", "codelist_name": "No Yes Response", "codelist_code": "C66742"}, "ML.MLPRESP": {"sdtm_domain": "ML", "sdtm_variable": "MLPRESP", "sdtm_label": "ML Pre-specified", "codelist": "NY", "codelist_name": "No Yes Response", "codelist_code": "C66742"}, "MO.MOBLFL": {"sdtm_domain": "MO", "sdtm_variable": "MOBLFL", "sdtm_label": "Baseline Flag", "codelist": "NY", "codelist_name": "No Yes Response", "codelist_code": "C66742"}, "MO.MODRVFL": {"sdtm_domain": "MO", "sdtm_variable": "MODRVFL", "sdtm_label": "Derived Flag", "codelist": "NY", "codelist_name": "No Yes Response", "codelist_code": "C66742"}, "MS.MSACPTFL": {"sdtm_domain": "MS", "sdtm_variable": "MSACPTFL", "sdtm_label": "Accepted Record Flag", "codelist": "NY", "codelist_name": "No Yes Response", "codelist_code": "C66742"}, "MS.MSBLFL": {"sdtm_domain": "MS", "sdtm_variable": "MSBLFL", "sdtm_label": "Baseline Flag", "codelist": "NY", "codelist_name": "No Yes Response", "codelist_code": "C66742"}, "MS.MSDRVFL": {"sdtm_domain": "MS", "sdtm_variable": "MSDRVFL", "sdtm_label": "Derived Flag", "codelist": "NY", "codelist_name": "No Yes Response", "codelist_code": "C66742"}, "MS.MSFAST": {"sdtm_domain": "MS", "sdtm_variable": "MSFAST", "sdtm_label": "Fasting Status", "codelist": "NY", "codelist_name": "No Yes Response", "codelist_code": "C66742"}, "MS.MSLOBXFL": {"sdtm_domain": "MS", "sdtm_variable": "MSLOBXFL", "sdtm_label": "Last Observation Before Exposure Flag", "codelist": "NY", "codelist_name": "No Yes Response", "codelist_code": "C66742"}, "NV.NVBLFL": {"sdtm_domain": "NV", "sdtm_variable": "NVBLFL", "sdtm_label": "Baseline Flag", "codelist": "NY", "codelist_name": "No Yes Response", "codelist_code": "C66742"}, "NV.NVDRVFL": {"sdtm_domain": "NV", "sdtm_variable": "NVDRVFL", "sdtm_label": "Derived Flag", "codelist": "NY", "codelist_name": "No Yes Response", "codelist_code": "C66742"}, "NV.NVLOBXFL": {"sdtm_domain": "NV", "sdtm_variable": "NVLOBXFL", "sdtm_label": "Last Observation Before Exposure Flag", "codelist": "NY", "codelist_name": "No Yes Response", "codelist_code": "C66742"}, "OE.OEACPTFL": {"sdtm_domain": "OE", "sdtm_variable": "OEACPTFL", "sdtm_label": "Accepted Record Flag", "codelist": "NY", "codelist_name": "No Yes Response", "codelist_code": "C66742"}, "OE.OEBLFL": {"sdtm_domain": "OE", "sdtm_variable": "OEBLFL", "sdtm_label": "Baseline Flag", "codelist": "NY", "codelist_name": "No Yes Response", "codelist_code": "C66742"}, "OE.OEDRVFL": {"sdtm_domain": "OE", "sdtm_variable": "OEDRVFL", "sdtm_label": "Derived Flag", "codelist": "NY", "codelist_name": "No Yes Response", "codelist_code": "C66742"}, "OE.OELOBXFL": {"sdtm_domain": "OE", "sdtm_variable": "OELOBXFL", "sdtm_label": "Last Observation Before Exposure Flag", "codelist": "NY", "codelist_name": "No Yes Response", "codelist_code": "C66742"}, "PC.PCDRVFL": {"sdtm_domain": "PC", "sdtm_variable": "PCDRVFL", "sdtm_label": "Derived Flag", "codelist": "NY", "codelist_name": "No Yes Response", "codelist_code": "C66742"}, "PC.PCFAST": {"sdtm_domain": "PC", "sdtm_variable": "PCFAST", "sdtm_label": "Fasting Status", "codelist": "NY", "codelist_name": "No Yes Response", "codelist_code": "C66742"}, "PE.PEBLFL": {"sdtm_domain": "PE", "sdtm_variable": "PEBLFL", "sdtm_label": "Baseline Flag", "codelist": "NY", "codelist_name": "No Yes Response", "codelist_code": "C66742"}, "PE.PELOBXFL": {"sdtm_domain": "PE", "sdtm_variable": "PELOBXFL", "sdtm_label": "Last Observation Before Exposure Flag", "codelist": "NY", "codelist_name": "No Yes Response", "codelist_code": "C66742"}, "PF.PFBLFL": {"sdtm_domain": "PF", "sdtm_variable": "PFBLFL", "sdtm_label": "Baseline Flag", "codelist": "NY", "codelist_name": "No Yes Response", "codelist_code": "C66742"}, "PF.PFDRVFL": {"sdtm_domain": "PF", "sdtm_variable": "PFDRVFL", "sdtm_label": "Derived Flag", "codelist": "NY", "codelist_name": "No Yes Response", "codelist_code": "C66742"}, "PR.PROCCUR": {"sdtm_domain": "PR", "sdtm_variable": "PROCCUR", "sdtm_label": "Occurrence", "codelist": "NY", "codelist_name": "No Yes Response", "codelist_code": "C66742"}, "PR.PRPRESP": {"sdtm_domain": "PR", "sdtm_variable": "PRPRESP", "sdtm_label": "Pre-specified", "codelist": "NY", "codelist_name": "No Yes Response", "codelist_code": "C66742"}, "QS.QSBLFL": {"sdtm_domain": "QS", "sdtm_variable": "QSBLFL", "sdtm_label": "Baseline Flag", "codelist": "NY", "codelist_name": "No Yes Response", "codelist_code": "C66742"}, "QS.QSDRVFL": {"sdtm_domain": "QS", "sdtm_variable": "QSDRVFL", "sdtm_label": "Derived Flag", "codelist": "NY", "codelist_name": "No Yes Response", "codelist_code": "C66742"}, "QS.QSLOBXFL": {"sdtm_domain": "QS", "sdtm_variable": "QSLOBXFL", "sdtm_label": "Last Observation Before Exposure Flag", "codelist": "NY", "codelist_name": "No Yes Response", "codelist_code": "C66742"}, "RE.REBLFL": {"sdtm_domain": "RE", "sdtm_variable": "REBLFL", "sdtm_label": "Baseline Flag", "codelist": "NY", "codelist_name": "No Yes Response", "codelist_code": "C66742"}, "RE.REDRVFL": {"sdtm_domain": "RE", "sdtm_variable": "REDRVFL", "sdtm_label": "Derived Flag", "codelist": "NY", "codelist_name": "No Yes Response", "codelist_code": "C66742"}, "RE.REIRESFL": {"sdtm_domain": "RE", "sdtm_variable": "REIRESFL", "sdtm_label": "Inadequate Results Flag", "codelist": "NY", "codelist_name": "No Yes Response", "codelist_code": "C66742"}, "RE.RELOBXFL": {"sdtm_domain": "RE", "sdtm_variable": "RELOBXFL", "sdtm_label": "Last Observation Before Exposure Flag", "codelist": "NY", "codelist_name": "No Yes Response", "codelist_code": "C66742"}, "RP.RPBLFL": {"sdtm_domain": "RP", "sdtm_variable": "RPBLFL", "sdtm_label": "Baseline Flag", "codelist": "NY", "codelist_name": "No Yes Response", "codelist_code": "C66742"}, "RP.RPDRVFL": {"sdtm_domain": "RP", "sdtm_variable": "RPDRVFL", "sdtm_label": "Derived Flag", "codelist": "NY", "codelist_name": "No Yes Response", "codelist_code": "C66742"}, "RP.RPLOBXFL": {"sdtm_domain": "RP", "sdtm_variable": "RPLOBXFL", "sdtm_label": "Last Observation Before Exposure Flag", "codelist": "NY", "codelist_name": "No Yes Response", "codelist_code": "C66742"}, "RS.RSACPTFL": {"sdtm_domain": "RS", "sdtm_variable": "RSACPTFL", "sdtm_label": "Accepted Record Flag", "codelist": "NY", "codelist_name": "No Yes Response", "codelist_code": "C66742"}, "RS.RSBLFL": {"sdtm_domain": "RS", "sdtm_variable": "RSBLFL", "sdtm_label": "Baseline Flag", "codelist": "NY", "codelist_name": "No Yes Response", "codelist_code": "C66742"}, "RS.RSDRVFL": {"sdtm_domain": "RS", "sdtm_variable": "RSDRVFL", "sdtm_label": "Derived Flag", "codelist": "NY", "codelist_name": "No Yes Response", "codelist_code": "C66742"}, "RS.RSLOBXFL": {"sdtm_domain": "RS", "sdtm_variable": "RSLOBXFL", "sdtm_label": "Last Observation Before Exposure Flag", "codelist": "NY", "codelist_name": "No Yes Response", "codelist_code": "C66742"}, "SR.SRBLFL": {"sdtm_domain": "SR", "sdtm_variable": "SRBLFL", "sdtm_label": "Baseline Flag", "codelist": "NY", "codelist_name": "No Yes Response", "codelist_code": "C66742"}, "SR.SRLOBXFL": {"sdtm_domain": "SR", "sdtm_variable": "SRLOBXFL", "sdtm_label": "Last Observation Before Exposure Flag", "codelist": "NY", "codelist_name": "No Yes Response", "codelist_code": "C66742"}, "SU.SUOCCUR": {"sdtm_domain": "SU", "sdtm_variable": "SUOCCUR", "sdtm_label": "SU Occurrence", "codelist": "NY", "codelist_name": "No Yes Response", "codelist_code": "C66742"}, "SU.SUPRESP": {"sdtm_domain": "SU", "sdtm_variable": "SUPRESP", "sdtm_label": "SU Pre-Specified", "codelist": "NY", "codelist_name": "No Yes Response", "codelist_code": "C66742"}, "SUPPAE.AEDSRESL": {"sdtm_domain": "SUPPAE", "sdtm_variable": "AEDSRESL", "sdtm_label": "AE Related to Disease Under Study", "codelist": "NY", "codelist_name": "No Yes Response", "codelist_code": "C66742"}, "SUPPAE.AEEVADJ": {"sdtm_domain": "SUPPAE", "sdtm_variable": "AEEVADJ", "sdtm_label": "Event to be Adjudicated", "codelist": "NY", "codelist_name": "No Yes Response", "codelist_code": "C66742"}, "SUPPAE.AEMAAE": {"sdtm_domain": "SUPPAE", "sdtm_variable": "AEMAAE", "sdtm_label": "AE Medically Attended", "codelist": "NY", "codelist_name": "No Yes Response", "codelist_code": "C66742"}, "SUPPAE.AEPROSSP": {"sdtm_domain": "SUPPAE", "sdtm_variable": "AEPROSSP", "sdtm_label": "Provoked by Specific Study Procedure", "codelist": "NY", "codelist_name": "No Yes Response", "codelist_code": "C66742"}, "SUPPCE.ADJACTFL": {"sdtm_domain": "SUPPCE", "sdtm_variable": "ADJACTFL", "sdtm_label": "Adjudication AE Active Event Flag", "codelist": "NY", "codelist_name": "No Yes Response", "codelist_code": "C66742"}, "SUPPCE.HFUOPV": {"sdtm_domain": "SUPPCE", "sdtm_variable": "HFUOPV", "sdtm_label": "Event Identified During Unsch. Outpt Vis", "codelist": "NY", "codelist_name": "No Yes Response", "codelist_code": "C66742"}, "SUPPCE.PPXPMED": {"sdtm_domain": "SUPPCE", "sdtm_variable": "PPXPMED", "sdtm_label": "Any Prophyla Med. Prior Study Drug Infus", "codelist": "NY", "codelist_name": "No Yes Response", "codelist_code": "C66742"}, "SUPPCM.CMCLYN": {"sdtm_domain": "SUPPCM", "sdtm_variable": "CMCLYN", "sdtm_label": "Cycle Number Applicable", "codelist": "NY", "codelist_name": "No Yes Response", "codelist_code": "C66742"}, "SUPPCM.CMIPRLTY": {"sdtm_domain": "SUPPCM", "sdtm_variable": "CMIPRLTY", "sdtm_label": "Immediate Line Therapy Prior Study Treat", "codelist": "NY", "codelist_name": "No Yes Response", "codelist_code": "C66742"}, "SUPPCM.CXPROG": {"sdtm_domain": "SUPPCM", "sdtm_variable": "CXPROG", "sdtm_label": "Disease Progression on Therapy", "codelist": "NY", "codelist_name": "No Yes Response", "codelist_code": "C66742"}, "SUPPCM.CXRAD": {"sdtm_domain": "SUPPCM", "sdtm_variable": "CXRAD", "sdtm_label": "Concomitant Radiotherapy", "codelist": "NY", "codelist_name": "No Yes Response", "codelist_code": "C66742"}, "SUPPCM.IODTEX": {"sdtm_domain": "SUPPCM", "sdtm_variable": "IODTEX", "sdtm_label": "Oxygen Increased due to Exercise", "codelist": "NY", "codelist_name": "No Yes Response", "codelist_code": "C66742"}, "SUPPCM.RADALDO": {"sdtm_domain": "SUPPCM", "sdtm_variable": "RADALDO", "sdtm_label": "Radio After Last Dose Without Oth Treatm", "codelist": "NY", "codelist_name": "No Yes Response", "codelist_code": "C66742"}, "SUPPCM.RADSTTR": {"sdtm_domain": "SUPPCM", "sdtm_variable": "RADSTTR", "sdtm_label": "Radioth Given as Standalone Treatment", "codelist": "NY", "codelist_name": "No Yes Response", "codelist_code": "C66742"}, "SUPPCP.BMABNY": {"sdtm_domain": "SUPPCP", "sdtm_variable": "BMABNY", "sdtm_label": "Any other bone marrow abnormalities", "codelist": "NY", "codelist_name": "No Yes Response", "codelist_code": "C66742"}, "SUPPEC.ECAATECH": {"sdtm_domain": "SUPPEC", "sdtm_variable": "ECAATECH", "sdtm_label": "Demonstrate Acceptable Admin Technique", "codelist": "NY", "codelist_name": "No Yes Response", "codelist_code": "C66742"}, "SUPPEC.ECDISC": {"sdtm_domain": "SUPPEC", "sdtm_variable": "ECDISC", "sdtm_label": "Drug Permanently Discontinued", "codelist": "NY", "codelist_name": "No Yes Response", "codelist_code": "C66742"}, "SUPPEC.ECTPSLD": {"sdtm_domain": "SUPPEC", "sdtm_variable": "ECTPSLD", "sdtm_label": "Treat Period Started with a Loading Dose", "codelist": "NY", "codelist_name": "No Yes Response", "codelist_code": "C66742"}, "SUPPEC.ODAE": {"sdtm_domain": "SUPPEC", "sdtm_variable": "ODAE", "sdtm_label": "Overdose Associated with AE", "codelist": "NY", "codelist_name": "No Yes Response", "codelist_code": "C66742"}, "SUPPEC.ODINTENT": {"sdtm_domain": "SUPPEC", "sdtm_variable": "ODINTENT", "sdtm_label": "Intentional Overdose", "codelist": "NY", "codelist_name": "No Yes Response", "codelist_code": "C66742"}, "SUPPEC.SDNONC": {"sdtm_domain": "SUPPEC", "sdtm_variable": "SDNONC", "sdtm_label": "Study Drug Conform Required Specificat", "codelist": "NY", "codelist_name": "No Yes Response", "codelist_code": "C66742"}, "SUPPEC.SDPROD": {"sdtm_domain": "SUPPEC", "sdtm_variable": "SDPROD", "sdtm_label": "Study Drug Produced", "codelist": "NY", "codelist_name": "No Yes Response", "codelist_code": "C66742"}, "SUPPEG.EGEQBL": {"sdtm_domain": "SUPPEG", "sdtm_variable": "EGEQBL", "sdtm_label": "ECG Equal to Baseline", "codelist": "NY", "codelist_name": "No Yes Response", "codelist_code": "C66742"}, "SUPPEX.EXAATECH": {"sdtm_domain": "SUPPEX", "sdtm_variable": "EXAATECH", "sdtm_label": "Demonstrate Acceptable Admin Technique", "codelist": "NY", "codelist_name": "No Yes Response", "codelist_code": "C66742"}, "SUPPEX.EXDISC": {"sdtm_domain": "SUPPEX", "sdtm_variable": "EXDISC", "sdtm_label": "Drug Permanently Discontinued", "codelist": "NY", "codelist_name": "No Yes Response", "codelist_code": "C66742"}, "SUPPEX.EXTPSLD": {"sdtm_domain": "SUPPEX", "sdtm_variable": "EXTPSLD", "sdtm_label": "Treat Period Started with a Loading Dose", "codelist": "NY", "codelist_name": "No Yes Response", "codelist_code": "C66742"}, "SUPPFA.ADQFIX": {"sdtm_domain": "SUPPFA", "sdtm_variable": "ADQFIX", "sdtm_label": "Adequate Fixation", "codelist": "NY", "codelist_name": "No Yes Response", "codelist_code": "C66742"}, "SUPPFA.ADQTIS": {"sdtm_domain": "SUPPFA", "sdtm_variable": "ADQTIS", "sdtm_label": "Adequate Tissue Provided", "codelist": "NY", "codelist_name": "No Yes Response", "codelist_code": "C66742"}, "SUPPLB.LBCLSIG": {"sdtm_domain": "SUPPLB", "sdtm_variable": "LBCLSIG", "sdtm_label": "Clinically Significant", "codelist": "NY", "codelist_name": "No Yes Response", "codelist_code": "C66742"}, "SUPPLB.LBCOND": {"sdtm_domain": "SUPPLB", "sdtm_variable": "LBCOND", "sdtm_label": "Lab Test Condition Met", "codelist": "NY", "codelist_name": "No Yes Response", "codelist_code": "C66742"}, "SUPPMH.DMAMED": {"sdtm_domain": "SUPPMH", "sdtm_variable": "DMAMED", "sdtm_label": "Currently Taking Antidiabetic Medication", "codelist": "NY", "codelist_name": "No Yes Response", "codelist_code": "C66742"}, "SUPPMH.MHCTRL": {"sdtm_domain": "SUPPMH", "sdtm_variable": "MHCTRL", "sdtm_label": "Disease or Symptom Under Control", "codelist": "NY", "codelist_name": "No Yes Response", "codelist_code": "C66742"}, "SUPPMH.MHTRTMED": {"sdtm_domain": "SUPPMH", "sdtm_variable": "MHTRTMED", "sdtm_label": "Gallbladder condition treated medically", "codelist": "NY", "codelist_name": "No Yes Response", "codelist_code": "C66742"}, "SUPPMH.MHTRTSUR": {"sdtm_domain": "SUPPMH", "sdtm_variable": "MHTRTSUR", "sdtm_label": "Gallbladder condition treated surgically", "codelist": "NY", "codelist_name": "No Yes Response", "codelist_code": "C66742"}, "SUPPRE.ASMACC": {"sdtm_domain": "SUPPRE", "sdtm_variable": "ASMACC", "sdtm_label": "Assessment Acceptable", "codelist": "NY", "codelist_name": "No Yes Response", "codelist_code": "C66742"}, "SUPPRE.ASM_APP": {"sdtm_domain": "SUPPRE", "sdtm_variable": "ASM_APP", "sdtm_label": "Assessment Applicable", "codelist": "NY", "codelist_name": "No Yes Response", "codelist_code": "C66742"}, "SUPPRE.CMEDPREV": {"sdtm_domain": "SUPPRE", "sdtm_variable": "CMEDPREV", "sdtm_label": "Concomitant Medication Previously Taken", "codelist": "NY", "codelist_name": "No Yes Response", "codelist_code": "C66742"}, "SUPPRE.ETHFACT": {"sdtm_domain": "SUPPRE", "sdtm_variable": "ETHFACT", "sdtm_label": "Ethnic Factor Used", "codelist": "NY", "codelist_name": "No Yes Response", "codelist_code": "C66742"}, "SUPPRE.IODTEX": {"sdtm_domain": "SUPPRE", "sdtm_variable": "IODTEX", "sdtm_label": "Oxygen Increased due to Exercise", "codelist": "NY", "codelist_name": "No Yes Response", "codelist_code": "C66742"}, "SUPPRE.IPPREV": {"sdtm_domain": "SUPPRE", "sdtm_variable": "IPPREV", "sdtm_label": "Investigational Product Previously Taken", "codelist": "NY", "codelist_name": "No Yes Response", "codelist_code": "C66742"}, "SUPPRE.OXYTHC": {"sdtm_domain": "SUPPRE", "sdtm_variable": "OXYTHC", "sdtm_label": "Oxygen Treatment Continues", "codelist": "NY", "codelist_name": "No Yes Response", "codelist_code": "C66742"}, "SUPPRE.OXYTHP": {"sdtm_domain": "SUPPRE", "sdtm_variable": "OXYTHP", "sdtm_label": "Oxygen Treatment Prior to Study Start", "codelist": "NY", "codelist_name": "No Yes Response", "codelist_code": "C66742"}, "SUPPRE.REPRCRIT": {"sdtm_domain": "SUPPRE", "sdtm_variable": "REPRCRIT", "sdtm_label": "Reproducibility Criteria Met", "codelist": "NY", "codelist_name": "No Yes Response", "codelist_code": "C66742"}, "SUPPRE.SMOKDP": {"sdtm_domain": "SUPPRE", "sdtm_variable": "SMOKDP", "sdtm_label": "Subject Smoked During Defined Period", "codelist": "NY", "codelist_name": "No Yes Response", "codelist_code": "C66742"}, "SUPPRS.ADJFL": {"sdtm_domain": "SUPPRS", "sdtm_variable": "ADJFL", "sdtm_label": "Adjudication Flag", "codelist": "NY", "codelist_name": "No Yes Response", "codelist_code": "C66742"}, "SUPPRS.PETCTPER": {"sdtm_domain": "SUPPRS", "sdtm_variable": "PETCTPER", "sdtm_label": "PET-CT Perf/Repeat After IR Assess", "codelist": "NY", "codelist_name": "No Yes Response", "codelist_code": "C66742"}, "SUPPSV.SVSPCHGI": {"sdtm_domain": "SUPPSV", "sdtm_variable": "SVSPCHGI", "sdtm_label": "Global/Country Situation Relat Indicator", "codelist": "NY", "codelist_name": "No Yes Response", "codelist_code": "C66742"}, "SUPPTR.LESNMNY": {"sdtm_domain": "SUPPTR", "sdtm_variable": "LESNMNY", "sdtm_label": "Non-measurable New Lesion", "codelist": "NY", "codelist_name": "No Yes Response", "codelist_code": "C66742"}, "SUPPTU.EQLSCN": {"sdtm_domain": "SUPPTU", "sdtm_variable": "EQLSCN", "sdtm_label": "New Equivocal Lesion Present", "codelist": "NY", "codelist_name": "No Yes Response", "codelist_code": "C66742"}, "SUPPXC.XCCPERF": {"sdtm_domain": "SUPPXC", "sdtm_variable": "XCCPERF", "sdtm_label": "Same Scanner Used at Baseline", "codelist": "NY", "codelist_name": "No Yes Response", "codelist_code": "C66742"}, "SV.SVEPCHGI": {"sdtm_domain": "SV", "sdtm_variable": "SVEPCHGI", "sdtm_label": "Epi/Pandemic Related Change Indicator", "codelist": "NY", "codelist_name": "No Yes Response", "codelist_code": "C66742"}, "SV.SVOCCUR": {"sdtm_domain": "SV", "sdtm_variable": "SVOCCUR", "sdtm_label": "Occurrence", "codelist": "NY", "codelist_name": "No Yes Response", "codelist_code": "C66742"}, "SV.SVPRESP": {"sdtm_domain": "SV", "sdtm_variable": "SVPRESP", "sdtm_label": "Pre-specified", "codelist": "NY", "codelist_name": "No Yes Response", "codelist_code": "C66742"}, "TM.TMRPT": {"sdtm_domain": "TM", "sdtm_variable": "TMRPT", "sdtm_label": "Disease Milestone Repetition Indicator", "codelist": "NY", "codelist_name": "No Yes Response", "codelist_code": "C66742"}, "TR.TRACPTFL": {"sdtm_domain": "TR", "sdtm_variable": "TRACPTFL", "sdtm_label": "Accepted Record Flag", "codelist": "NY", "codelist_name": "No Yes Response", "codelist_code": "C66742"}, "TR.TRBLFL": {"sdtm_domain": "TR", "sdtm_variable": "TRBLFL", "sdtm_label": "Baseline Flag", "codelist": "NY", "codelist_name": "No Yes Response", "codelist_code": "C66742"}, "TR.TRLOBXFL": {"sdtm_domain": "TR", "sdtm_variable": "TRLOBXFL", "sdtm_label": "Last Observation Before Exposure Flag", "codelist": "NY", "codelist_name": "No Yes Response", "codelist_code": "C66742"}, "TU.TUACPTFL": {"sdtm_domain": "TU", "sdtm_variable": "TUACPTFL", "sdtm_label": "Accepted Record Flag", "codelist": "NY", "codelist_name": "No Yes Response", "codelist_code": "C66742"}, "TU.TUBLFL": {"sdtm_domain": "TU", "sdtm_variable": "TUBLFL", "sdtm_label": "Baseline Flag", "codelist": "NY", "codelist_name": "No Yes Response", "codelist_code": "C66742"}, "TU.TULOBXFL": {"sdtm_domain": "TU", "sdtm_variable": "TULOBXFL", "sdtm_label": "Last Observation Before Exposure Flag", "codelist": "NY", "codelist_name": "No Yes Response", "codelist_code": "C66742"}, "UR.URBLFL": {"sdtm_domain": "UR", "sdtm_variable": "URBLFL", "sdtm_label": "Baseline Flag", "codelist": "NY", "codelist_name": "No Yes Response", "codelist_code": "C66742"}, "UR.URDRVFL": {"sdtm_domain": "UR", "sdtm_variable": "URDRVFL", "sdtm_label": "Derived Flag", "codelist": "NY", "codelist_name": "No Yes Response", "codelist_code": "C66742"}, "UR.URLOBXFL": {"sdtm_domain": "UR", "sdtm_variable": "URLOBXFL", "sdtm_label": "Last Observation Before Exposure Flag", "codelist": "NY", "codelist_name": "No Yes Response", "codelist_code": "C66742"}, "VR.VRBLFL": {"sdtm_domain": "VR", "sdtm_variable": "VRBLFL", "sdtm_label": "Baseline Flag", "codelist": "NY", "codelist_name": "No Yes Response", "codelist_code": "C66742"}, "VR.VRDRVFL": {"sdtm_domain": "VR", "sdtm_variable": "VRDRVFL", "sdtm_label": "Derived Flag", "codelist": "NY", "codelist_name": "No Yes Response", "codelist_code": "C66742"}, "VS.VSBLFL": {"sdtm_domain": "VS", "sdtm_variable": "VSBLFL", "sdtm_label": "Baseline Flag", "codelist": "NY", "codelist_name": "No Yes Response", "codelist_code": "C66742"}, "VS.VSCLSIG": {"sdtm_domain": "VS", "sdtm_variable": "VSCLSIG", "sdtm_label": "Clinically Significant, Collected", "codelist": "NY", "codelist_name": "No Yes Response", "codelist_code": "C66742"}, "VS.VSDRVFL": {"sdtm_domain": "VS", "sdtm_variable": "VSDRVFL", "sdtm_label": "Derived Flag", "codelist": "NY", "codelist_name": "No Yes Response", "codelist_code": "C66742"}, "VS.VSLOBXFL": {"sdtm_domain": "VS", "sdtm_variable": "VSLOBXFL", "sdtm_label": "Last Observation Before Exposure Flag", "codelist": "NY", "codelist_name": "No Yes Response", "codelist_code": "C66742"}, "YB.YBOCCUR": {"sdtm_domain": "YB", "sdtm_variable": "YBOCCUR", "sdtm_label": "Occurrence Indicator", "codelist": "NY", "codelist_name": "No Yes Response", "codelist_code": "C66742"}, "YB.YBPRESP": {"sdtm_domain": "YB", "sdtm_variable": "YBPRESP", "sdtm_label": "Pre-Specified", "codelist": "NY", "codelist_name": "No Yes Response", "codelist_code": "C66742"}, "SUPPDS.OCONWD": {"sdtm_domain": "SUPPDS", "sdtm_variable": "OCONWD", "sdtm_label": "Consent Withdrawn", "codelist": "OCONWD", "codelist_name": "Consent Withdrawn", "codelist_code": "AZC00492"}, "OE.FOCID": {"sdtm_domain": "OE", "sdtm_variable": "FOCID", "sdtm_label": "Focus of Study-Specific Interest", "codelist": "OEFOCUS", "codelist_name": "Ophthalmic Focus of Study Specific Interest", "codelist_code": "C119013"}, "OE.OETEST": {"sdtm_domain": "OE", "sdtm_variable": "OETEST", "sdtm_label": "Name of Ophthalmic Test or Exam", "codelist": "OETEST", "codelist_name": "Ophthalmic Exam Test Name", "codelist_code": "C117742"}, "OE.OETESTCD": {"sdtm_domain": "OE", "sdtm_variable": "OETESTCD", "sdtm_label": "Short Name of Ophthalmic Test or Exam", "codelist": "OETESTCD", "codelist_name": "Ophthalmic Exam Test Code", "codelist_code": "C117743"}, "OI.OIPARM": {"sdtm_domain": "OI", "sdtm_variable": "OIPARM", "sdtm_label": "Non-host Organism ID Element Name", "codelist": "OIPRM", "codelist_name": "Non-host Organism Identifier Parameters", "codelist_code": "C179590"}, "OI.OIPARMCD": {"sdtm_domain": "OI", "sdtm_variable": "OIPARMCD", "sdtm_label": "Non-host Organism ID Element Short Name", "codelist": "OIPRMCD", "codelist_name": "Non-host Organism Identifier Parameters Code", "codelist_code": "C179591"}, "RS.RSCAT": {"sdtm_domain": "RS", "sdtm_variable": "RSCAT", "sdtm_label": "Category for Assessment", "codelist": "ONCRSCAT", "codelist_name": "Category of Oncology Response Assessment", "codelist_code": "C124298"}, "RS.RSSTRESC": {"sdtm_domain": "RS", "sdtm_variable": "RSSTRESC", "sdtm_label": "Character Result/Finding in Std Format", "codelist": "ONCRSR", "codelist_name": "Oncology Response Assessment Result", "codelist_code": "C96785"}, "SUPPCM.ONCRSR": {"sdtm_domain": "SUPPCM", "sdtm_variable": "ONCRSR", "sdtm_label": "Best Overall Response", "codelist": "ONCRSRCT", "codelist_name": "Best Overall Response", "codelist_code": "AZC02403"}, "RS.RSTEST": {"sdtm_domain": "RS", "sdtm_variable": "RSTEST", "sdtm_label": "Assessment Name", "codelist": "ONCRTS", "codelist_name": "Oncology Response Assessment Test Name", "codelist_code": "C96781"}, "RS.RSTESTCD": {"sdtm_domain": "RS", "sdtm_variable": "RSTESTCD", "sdtm_label": "Assessment Short Name", "codelist": "ONCRTSCD", "codelist_name": "Oncology Response Assessment Test Code", "codelist_code": "C96782"}, "AE.AEOUT": {"sdtm_domain": "AE", "sdtm_variable": "AEOUT", "sdtm_label": "Outcome of Adverse Event", "codelist": "OUT", "codelist_name": "Outcome of Event", "codelist_code": "C66768"}, "PC.PCCAT": {"sdtm_domain": "PC", "sdtm_variable": "PCCAT", "sdtm_label": "Test Category", "codelist": "PCCAT", "codelist_name": "Test Category", "codelist_code": "AZC00494"}, "SUPPPC.PCIPBFML": {"sdtm_domain": "SUPPPC", "sdtm_variable": "PCIPBFML", "sdtm_label": "Last IP Taken Before any Food That Day", "codelist": "PCIPBFML", "codelist_name": "Last IP Taken Before any Food That Day", "codelist_code": "AZC02614"}, "PC.PCNAM": {"sdtm_domain": "PC", "sdtm_variable": "PCNAM", "sdtm_label": "Vendor Name", "codelist": "PCNAM", "codelist_name": "Vendor Name", "codelist_code": "AZC02615"}, "PC.PCSCAT": {"sdtm_domain": "PC", "sdtm_variable": "PCSCAT", "sdtm_label": "Test Subcategory", "codelist": "PCSCAT", "codelist_name": "Test Subcategory", "codelist_code": "AZC00495"}, "PC.PCTEST": {"sdtm_domain": "PC", "sdtm_variable": "PCTEST", "sdtm_label": "Pharmacokinetic Test Name", "codelist": "PCTEST", "codelist_name": "Pharmacokinetic Test Name", "codelist_code": "AZC02696"}, "PC.PCTESTCD": {"sdtm_domain": "PC", "sdtm_variable": "PCTESTCD", "sdtm_label": "Pharmacokinetic Test Short Name", "codelist": "PCTESTCD", "codelist_name": "Pharmacokinetic Test Short Name", "codelist_code": "AZC02697"}, "SUPPPC.PCTPREF2": {"sdtm_domain": "SUPPPC", "sdtm_variable": "PCTPREF2", "sdtm_label": "Time Point Reference 2", "codelist": "PCTPREF2", "codelist_name": "Time Point Reference 2", "codelist_code": "AZC00090"}, "PC.PCTPTREF": {"sdtm_domain": "PC", "sdtm_variable": "PCTPTREF", "sdtm_label": "Time Point Reference", "codelist": "PCTPTREF", "codelist_name": "Time Point Reference", "codelist_code": "AZC02616"}, "PE.PECAT": {"sdtm_domain": "PE", "sdtm_variable": "PECAT", "sdtm_label": "Category for Examination", "codelist": "PECAT", "codelist_name": "Category for Examination", "codelist_code": "AZC00498"}, "PE.PETEST": {"sdtm_domain": "PE", "sdtm_variable": "PETEST", "sdtm_label": "Body System Examined", "codelist": "PETEST", "codelist_name": "Body System Examined", "codelist_code": "AZC00500"}, "PE.PETESTCD": {"sdtm_domain": "PE", "sdtm_variable": "PETESTCD", "sdtm_label": "Body System Examined Short Name", "codelist": "PETESTCD", "codelist_name": "Body System Examined Short Name", "codelist_code": "AZC00501"}, "SUPPFA.PEXHLES": {"sdtm_domain": "SUPPFA", "sdtm_variable": "PEXHLES", "sdtm_label": "Presence of Extrahepatic Lesions", "codelist": "PEXHLES", "codelist_name": "Presence of Extrahepatic Lesions", "codelist_code": "AZC02729"}, "PF.PFCAT": {"sdtm_domain": "PF", "sdtm_variable": "PFCAT", "sdtm_label": "Category", "codelist": "PFCAT", "codelist_name": "Category", "codelist_code": "AZC02276"}, "PF.PFNAM": {"sdtm_domain": "PF", "sdtm_variable": "PFNAM", "sdtm_label": "Laboratory/Vendor Name", "codelist": "PFNAM", "codelist_name": "Laboratory/Vendor Name", "codelist_code": "AZC02277"}, "PF.PFSCAT": {"sdtm_domain": "PF", "sdtm_variable": "PFSCAT", "sdtm_label": "Subcategory", "codelist": "PFSCAT", "codelist_name": "Subcategory", "codelist_code": "AZC02278"}, "PF.PFTEST": {"sdtm_domain": "PF", "sdtm_variable": "PFTEST", "sdtm_label": "Name of Measurement, Test, or Exam", "codelist": "PFTEST", "codelist_name": "Name of Measurement, Test, or Exam", "codelist_code": "AZC02280"}, "PF.PFTESTCD": {"sdtm_domain": "PF", "sdtm_variable": "PFTESTCD", "sdtm_label": "Short Name of Measurement, Test, or Exam", "codelist": "PFTESTCD", "codelist_name": "Short Name of Measurement, Test, or Exam", "codelist_code": "AZC02281"}, "PP.PPANMETH": {"sdtm_domain": "PP", "sdtm_variable": "PPANMETH", "sdtm_label": "Analysis Method", "codelist": "PKANMET", "codelist_name": "PK Analytical Method", "codelist_code": "C172330"}, "PP.PPTEST": {"sdtm_domain": "PP", "sdtm_variable": "PPTEST", "sdtm_label": "Parameter Name", "codelist": "PKPARM", "codelist_name": "PK Parameters", "codelist_code": "C85493"}, "PP.PPTESTCD": {"sdtm_domain": "PP", "sdtm_variable": "PPTESTCD", "sdtm_label": "Parameter Short Name", "codelist": "PKPARMCD", "codelist_name": "PK Parameters Code", "codelist_code": "C85839"}, "PP.PPORRESU": {"sdtm_domain": "PP", "sdtm_variable": "PPORRESU", "sdtm_label": "Original Units", "codelist": "PKUNIT", "codelist_name": "PK Units of Measure", "codelist_code": "C85494"}, "PP.PPSTRESU": {"sdtm_domain": "PP", "sdtm_variable": "PPSTRESU", "sdtm_label": "Standard Units", "codelist": "PKUNIT", "codelist_name": "PK Units of Measure", "codelist_code": "C85494"}, "PC.PCORRESU": {"sdtm_domain": "PC", "sdtm_variable": "PCORRESU", "sdtm_label": "Original Units", "codelist": "PKUNIT", "codelist_name": "PK Units of Measure", "codelist_code": "C85494"}, "PC.PCSTRESU": {"sdtm_domain": "PC", "sdtm_variable": "PCSTRESU", "sdtm_label": "Standard Units", "codelist": "PKUNIT", "codelist_name": "PK Units of Measure", "codelist_code": "C85494"}, "SUPPMI.PLAPPROV": {"sdtm_domain": "SUPPMI", "sdtm_variable": "PLAPPROV", "sdtm_label": "Regulatory Assay for This Indication", "codelist": "PLAPPROV", "codelist_name": "Regulatory Assay for This Indication", "codelist_code": "AZC02526"}, "SUPPMI.PLCLONE": {"sdtm_domain": "SUPPMI", "sdtm_variable": "PLCLONE", "sdtm_label": "Antibody Clone", "codelist": "PLCLONE", "codelist_name": "Antibody Clone", "codelist_code": "AZC02527"}, "SUPPMI.PLDETYN": {"sdtm_domain": "SUPPMI", "sdtm_variable": "PLDETYN", "sdtm_label": "Are Technical Details Of The Test Known", "codelist": "PLDETYN", "codelist_name": "Are Technical Details Of The Test Known", "codelist_code": "AZC02528"}, "SUPPMI.PLIMMST": {"sdtm_domain": "SUPPMI", "sdtm_variable": "PLIMMST", "sdtm_label": "Immune Cell PD-L1 % Staining Reported", "codelist": "PLIMMST", "codelist_name": "Immune Cell PD-L1 % Staining Reported", "codelist_code": "AZC02529"}, "SUPPMI.PLPURP": {"sdtm_domain": "SUPPMI", "sdtm_variable": "PLPURP", "sdtm_label": "Purpose of Test", "codelist": "PLPURP", "codelist_name": "Purpose of Test", "codelist_code": "AZC02530"}, "SUPPMI.PLSTAT": {"sdtm_domain": "SUPPMI", "sdtm_variable": "PLSTAT", "sdtm_label": "Historical PD-L1 Status", "codelist": "PLSTAT", "codelist_name": "Historical PD-L1 Status", "codelist_code": "AZC02531"}, "SUPPMI.PLTAPCU": {"sdtm_domain": "SUPPMI", "sdtm_variable": "PLTAPCU", "sdtm_label": "TAP PD-L1 Cut-Off Used", "codelist": "PLTAPCU", "codelist_name": "TAP PD-L1 Cut-Off Used", "codelist_code": "AZC02532"}, "SUPPMI.PLTCOMP": {"sdtm_domain": "SUPPMI", "sdtm_variable": "PLTCOMP", "sdtm_label": "Component Assessed to Inform Staining Sc", "codelist": "PLTCOMP", "codelist_name": "Component Assessed to Inform Staining Sc", "codelist_code": "AZC02583"}, "SUPPMI.PLTUMST": {"sdtm_domain": "SUPPMI", "sdtm_variable": "PLTUMST", "sdtm_label": "Tumor Cell PD-L1 % Staining Reported", "codelist": "PLTUMST", "codelist_name": "Tumor Cell PD-L1 % Staining Reported", "codelist_code": "AZC02533"}, "EC.ECPORTOT": {"sdtm_domain": "EC", "sdtm_variable": "ECPORTOT", "sdtm_label": "Portion or Totality", "codelist": "PORTOT", "codelist_name": "Portion/Totality", "codelist_code": "C99075"}, "MO.MOPORTOT": {"sdtm_domain": "MO", "sdtm_variable": "MOPORTOT", "sdtm_label": "Portion or Totality", "codelist": "PORTOT", "codelist_name": "Portion/Totality", "codelist_code": "C99075"}, "OE.OEPORTOT": {"sdtm_domain": "OE", "sdtm_variable": "OEPORTOT", "sdtm_label": "Portion or Totality", "codelist": "PORTOT", "codelist_name": "Portion/Totality", "codelist_code": "C99075"}, "PR.PRPORTOT": {"sdtm_domain": "PR", "sdtm_variable": "PRPORTOT", "sdtm_label": "Portion or Totality", "codelist": "PORTOT", "codelist_name": "Portion/Totality", "codelist_code": "C99075"}, "TU.TUPORTOT": {"sdtm_domain": "TU", "sdtm_variable": "TUPORTOT", "sdtm_label": "Portion or Totality", "codelist": "PORTOT", "codelist_name": "Portion/Totality", "codelist_code": "C99075"}, "CV.CVPOS": {"sdtm_domain": "CV", "sdtm_variable": "CVPOS", "sdtm_label": "Position of Subject During Observation", "codelist": "POSITION", "codelist_name": "Position", "codelist_code": "C71148"}, "EG.EGPOS": {"sdtm_domain": "EG", "sdtm_variable": "EGPOS", "sdtm_label": "ECG Position of Subject", "codelist": "POSITION", "codelist_name": "Position", "codelist_code": "C71148"}, "FT.FTPOS": {"sdtm_domain": "FT", "sdtm_variable": "FTPOS", "sdtm_label": "Position of Subject During Observation", "codelist": "POSITION", "codelist_name": "Position", "codelist_code": "C71148"}, "MK.MKPOS": {"sdtm_domain": "MK", "sdtm_variable": "MKPOS", "sdtm_label": "Position of Subject", "codelist": "POSITION", "codelist_name": "Position", "codelist_code": "C71148"}, "MO.MOPOS": {"sdtm_domain": "MO", "sdtm_variable": "MOPOS", "sdtm_label": "Position of Subject", "codelist": "POSITION", "codelist_name": "Position", "codelist_code": "C71148"}, "RE.REPOS": {"sdtm_domain": "RE", "sdtm_variable": "REPOS", "sdtm_label": "Position of Subject During Observation", "codelist": "POSITION", "codelist_name": "Position", "codelist_code": "C71148"}, "VS.VSPOS": {"sdtm_domain": "VS", "sdtm_variable": "VSPOS", "sdtm_label": "Vital Signs Position of Subject", "codelist": "POSITION", "codelist_name": "Position", "codelist_code": "C71148"}, "SUPPDE.POTDESER": {"sdtm_domain": "SUPPDE", "sdtm_variable": "POTDESER", "sdtm_label": "Potential Seriousness", "codelist": "POTDESER", "codelist_name": "Potential Seriousness", "codelist_code": "AZC02497"}, "PR.PRCAT": {"sdtm_domain": "PR", "sdtm_variable": "PRCAT", "sdtm_label": "Category", "codelist": "PRCAT", "codelist_name": "Category", "codelist_code": "AZC00502"}, "PR.PRINDC": {"sdtm_domain": "PR", "sdtm_variable": "PRINDC", "sdtm_label": "Indication", "codelist": "PRINDC", "codelist_name": "Indication", "codelist_code": "AZC02282"}, "PR.PRLNKID": {"sdtm_domain": "PR", "sdtm_variable": "PRLNKID", "sdtm_label": "Link ID", "codelist": "PRLNKID", "codelist_name": "Link ID", "codelist_code": "AZC02700"}, "SUPPRS.PRLYM": {"sdtm_domain": "SUPPRS", "sdtm_variable": "PRLYM", "sdtm_label": "PR with Lymphocytosis", "codelist": "PRLYM", "codelist_name": "PR with Lymphocytosis", "codelist_code": "AZC02701"}, "PR.PRDECOD": {"sdtm_domain": "PR", "sdtm_variable": "PRDECOD", "sdtm_label": "Standardized Procedure Name", "codelist": "PROCEDUR", "codelist_name": "Procedure", "codelist_code": "C101858"}, "PR.PRSCAT": {"sdtm_domain": "PR", "sdtm_variable": "PRSCAT", "sdtm_label": "Subcategory", "codelist": "PRSCAT", "codelist_name": "Subcategory", "codelist_code": "AZC00504"}, "PR.PRSTRF": {"sdtm_domain": "PR", "sdtm_variable": "PRSTRF", "sdtm_label": "Start Relative to Reference Period", "codelist": "PRSTRF", "codelist_name": "Start Relative to Reference Period", "codelist_code": "AZC02702"}, "SUPPRE.QCSTATS": {"sdtm_domain": "SUPPRE", "sdtm_variable": "QCSTATS", "sdtm_label": "Image QC Status", "codelist": "QCSTATS", "codelist_name": "Image QC Status", "codelist_code": "AZC02499"}, "FT.FTMETHOD": {"sdtm_domain": "FT", "sdtm_variable": "FTMETHOD", "sdtm_label": "Method of Test or Examination", "codelist": "QRSMTHOD", "codelist_name": "QRS Method", "codelist_code": "C158113"}, "QS.QSMETHOD": {"sdtm_domain": "QS", "sdtm_variable": "QSMETHOD", "sdtm_label": "Method of Test or Examination", "codelist": "QRSMTHOD", "codelist_name": "QRS Method", "codelist_code": "C158113"}, "RS.RSMETHOD": {"sdtm_domain": "RS", "sdtm_variable": "RSMETHOD", "sdtm_label": "Method of Test or Examination", "codelist": "QRSMTHOD", "codelist_name": "QRS Method", "codelist_code": "C158113"}, "SUPPQS.QSANTXHI": {"sdtm_domain": "SUPPQS", "sdtm_variable": "QSANTXHI", "sdtm_label": "Anchor Text High", "codelist": "QSANTXHI", "codelist_name": "Anchor Text High", "codelist_code": "AZC02346"}, "SUPPQS.QSANTXLO": {"sdtm_domain": "SUPPQS", "sdtm_variable": "QSANTXLO", "sdtm_label": "Anchor Text Low", "codelist": "QSANTXLO", "codelist_name": "Anchor Text Low", "codelist_code": "AZC02347"}, "QS.QSCAT": {"sdtm_domain": "QS", "sdtm_variable": "QSCAT", "sdtm_label": "Category of Question", "codelist": "QSCAT", "codelist_name": "Category of Questionnaire", "codelist_code": "C100129"}, "SUPPQS.QSLANG": {"sdtm_domain": "SUPPQS", "sdtm_variable": "QSLANG", "sdtm_label": "Questionnaire Language", "codelist": "QSLANG", "codelist_name": "Language", "codelist_code": "AZC00344"}, "SUPPQS.QSMOTH": {"sdtm_domain": "SUPPQS", "sdtm_variable": "QSMOTH", "sdtm_label": "Collection Method Other than Expected", "codelist": "QSMOTH", "codelist_name": "Collection Method Other than Expected", "codelist_code": "AZC00508"}, "QS.QSREASND": {"sdtm_domain": "QS", "sdtm_variable": "QSREASND", "sdtm_label": "Reason Not Performed", "codelist": "QSREASND", "codelist_name": "Reason Not Performed", "codelist_code": "AZC00509"}, "QS.QSSCAT": {"sdtm_domain": "QS", "sdtm_variable": "QSSCAT", "sdtm_label": "Subcategory for Question", "codelist": "QSSCAT", "codelist_name": "Subcategory for Question", "codelist_code": "AZC00510"}, "QS.QSTPT": {"sdtm_domain": "QS", "sdtm_variable": "QSTPT", "sdtm_label": "Planned Time Point Name", "codelist": "QSTPT", "codelist_name": "Planned Time Point Name", "codelist_code": "AZC02026"}, "SUPPRE.QUALGRD": {"sdtm_domain": "SUPPRE", "sdtm_variable": "QUALGRD", "sdtm_label": "Quality Grade", "codelist": "QUALGRD", "codelist_name": "Quality Grade", "codelist_code": "AZC02392"}, "SUPPTR.R1NTLAST": {"sdtm_domain": "SUPPTR", "sdtm_variable": "R1NTLAST", "sdtm_label": "Significantly Worsened Since Last Assmt", "codelist": "R1NTLAST", "codelist_name": "Significantly Worsened Since Last Assmt", "codelist_code": "AZC02585"}, "DM.RACE\nRACE\nRACE1\nRACE2\nRACE3\nRACE4\nRACE5\nRACE6\nRACE7": {"sdtm_domain": "DM", "sdtm_variable": "RACE\nRACE\nRACE1\nRACE2\nRACE3\nRACE4\nRACE5\nRACE6\nRACE7", "sdtm_label": "Race\nRace\nRace 1\nRace 2\nRace 3\nRace 4\nRace 5\nRace 6\nRace 7", "codelist": "RACE", "codelist_name": "Race", "codelist_code": "C74457"}, "DM.RACE": {"sdtm_domain": "DM", "sdtm_variable": "RACE", "sdtm_label": "Race", "codelist": "RACE", "codelist_name": "Race", "codelist_code": "C74457"}, "SS.SSTESTCD\nSSTEST\nSSORRES\nSSSTRESC\nINFOSCS1\nINFOSCS2\nINFOSCS3\nINFOSCS4\nINFOSCS5\nINFOSCS6\nINFOSCS7": {"sdtm_domain": "SS", "sdtm_variable": "SSTESTCD\nSSTEST\nSSORRES\nSSSTRESC\nINFOSCS1\nINFOSCS2\nINFOSCS3\nINFOSCS4\nINFOSCS5\nINFOSCS6\nINFOSCS7", "sdtm_label": "Status Short Name\nStatus Name\nResult or Finding Original Result\nCharacter Result/Finding in Std Format\nInformation Source Survival Status 1\nInformation Source Survival Status 2\nInformation Source Survival Status 3\nInformation Source Survival Status 4\nInformation Source Survival Status 5\nInformation Source Survival Status 6\nInformation Source Survival Status 7", "codelist": "RACE", "codelist_name": "Race", "codelist_code": "C74457"}, "RE.REACPTFL": {"sdtm_domain": "RE", "sdtm_variable": "REACPTFL", "sdtm_label": "Accepted Record Flag", "codelist": "REACPTFL", "codelist_name": "Accepted Record Flag", "codelist_code": "AZC02501"}, "SUPPRE.REBRESFL": {"sdtm_domain": "SUPPRE", "sdtm_variable": "REBRESFL", "sdtm_label": "Best Result Flag", "codelist": "REBRESFL", "codelist_name": "Best Result Flag", "codelist_code": "AZC00517"}, "RE.RECAT": {"sdtm_domain": "RE", "sdtm_variable": "RECAT", "sdtm_label": "Category for Respiratory Test", "codelist": "RECAT", "codelist_name": "Category for Respiratory Test", "codelist_code": "AZC00518"}, "RELREC.RELID": {"sdtm_domain": "RELREC", "sdtm_variable": "RELID", "sdtm_label": "Relationship Identifier", "codelist": "RELID", "codelist_name": "Relationship Identifier", "codelist_code": "AZC02300"}, "RELSUB.SREL": {"sdtm_domain": "RELSUB", "sdtm_variable": "SREL", "sdtm_label": "Subject Relationship", "codelist": "RELSUB", "codelist_name": "Relationship to Subject", "codelist_code": "C100130"}, "RELREC.RELTYPE": {"sdtm_domain": "RELREC", "sdtm_variable": "RELTYPE", "sdtm_label": "Relationship Type", "codelist": "RELTYPE", "codelist_name": "Relationship Type", "codelist_code": "C78737"}, "RE.REPORTOT": {"sdtm_domain": "RE", "sdtm_variable": "REPORTOT", "sdtm_label": "Portion or Totality", "codelist": "REPORTOT", "codelist_name": "Portion or Totality", "codelist_code": "AZC02502"}, "SUPPRE.RERESP": {"sdtm_domain": "SUPPRE", "sdtm_variable": "RERESP", "sdtm_label": "Respiratory Phase", "codelist": "RERESP", "codelist_name": "Respiratory Phase", "codelist_code": "AZC02503"}, "RE.RESCAT": {"sdtm_domain": "RE", "sdtm_variable": "RESCAT", "sdtm_label": "Subcategory for Respiratory Test", "codelist": "RESCAT", "codelist_name": "Subcategory for Respiratory Test", "codelist_code": "AZC02089"}, "SUPPRE.RESLOC": {"sdtm_domain": "SUPPRE", "sdtm_variable": "RESLOC", "sdtm_label": "Sublocation", "codelist": "RESLOC", "codelist_name": "Sublocation", "codelist_code": "AZC02504"}, "CP.CPRESTYP": {"sdtm_domain": "CP", "sdtm_variable": "CPRESTYP", "sdtm_label": "Result Type", "codelist": "RESTYPRS", "codelist_name": "Result Type Response", "codelist_code": "C179588"}, "LB.LBRESTYP": {"sdtm_domain": "LB", "sdtm_variable": "LBRESTYP", "sdtm_label": "Result Type", "codelist": "RESTYPRS", "codelist_name": "Result Type Response", "codelist_code": "C179588"}, "RE.RETEST": {"sdtm_domain": "RE", "sdtm_variable": "RETEST", "sdtm_label": "Name of Respiratory Test", "codelist": "RETEST", "codelist_name": "Respiratory Test Name", "codelist_code": "C111107"}, "RE.RETESTCD": {"sdtm_domain": "RE", "sdtm_variable": "RETESTCD", "sdtm_label": "Short Name of Respiratory Test", "codelist": "RETESTCD", "codelist_name": "Respiratory Test Code", "codelist_code": "C111106"}, "RE.RETPT": {"sdtm_domain": "RE", "sdtm_variable": "RETPT", "sdtm_label": "Planned Time Point Name", "codelist": "RETPT", "codelist_name": "Planned Time Point Name", "codelist_code": "AZC02506"}, "RE.RETPTREF": {"sdtm_domain": "RE", "sdtm_variable": "RETPTREF", "sdtm_label": "Time Point Reference", "codelist": "RETPTREF", "codelist_name": "Time Point Reference", "codelist_code": "AZC00521"}, "RE.RETSTDTL": {"sdtm_domain": "RE", "sdtm_variable": "RETSTDTL", "sdtm_label": "Measurement, Test, or Examination Detail", "codelist": "RETSTDTL", "codelist_name": "Measurement, Test, or Examination Detail", "codelist_code": "AZC00522"}, "SUPPRS.RNECTREA": {"sdtm_domain": "SUPPRS", "sdtm_variable": "RNECTREA", "sdtm_label": "RECIL Reason CT/MRI Resp NE", "codelist": "RNECTREA", "codelist_name": "RECIL Reason CT/MRI Resp NE", "codelist_code": "AZC02369"}, "SUPPRS.RNEPETRS": {"sdtm_domain": "SUPPRS", "sdtm_variable": "RNEPETRS", "sdtm_label": "RECIL Reason PET/PET-CT Resp NE", "codelist": "RNEPETRS", "codelist_name": "RECIL Reason PET/PET-CT Resp NE", "codelist_code": "AZC02370"}, "AG.AGROUTE": {"sdtm_domain": "AG", "sdtm_variable": "AGROUTE", "sdtm_label": "Route of Administration", "codelist": "ROUTE", "codelist_name": "Route of Administration Response", "codelist_code": "C66729"}, "CM.CMROUTE": {"sdtm_domain": "CM", "sdtm_variable": "CMROUTE", "sdtm_label": "Route of Administration", "codelist": "ROUTE", "codelist_name": "Route of Administration Response", "codelist_code": "C66729"}, "DX.DXROUTE": {"sdtm_domain": "DX", "sdtm_variable": "DXROUTE", "sdtm_label": "Route of Administration", "codelist": "ROUTE", "codelist_name": "Route of Administration Response", "codelist_code": "C66729"}, "EC.ECROUTE": {"sdtm_domain": "EC", "sdtm_variable": "ECROUTE", "sdtm_label": "Route of Administration", "codelist": "ROUTE", "codelist_name": "Route of Administration Response", "codelist_code": "C66729"}, "EX.EXROUTE": {"sdtm_domain": "EX", "sdtm_variable": "EXROUTE", "sdtm_label": "Route of Administration", "codelist": "ROUTE", "codelist_name": "Route of Administration Response", "codelist_code": "C66729"}, "ML.MLROUTE": {"sdtm_domain": "ML", "sdtm_variable": "MLROUTE", "sdtm_label": "Route of Administration", "codelist": "ROUTE", "codelist_name": "Route of Administration Response", "codelist_code": "C66729"}, "PR.PRROUTE": {"sdtm_domain": "PR", "sdtm_variable": "PRROUTE", "sdtm_label": "Route of Administration", "codelist": "ROUTE", "codelist_name": "Route of Administration Response", "codelist_code": "C66729"}, "SU.SUROUTE": {"sdtm_domain": "SU", "sdtm_variable": "SUROUTE", "sdtm_label": "Route of Administration", "codelist": "ROUTE", "codelist_name": "Route of Administration Response", "codelist_code": "C66729"}, "RP.RPCAT": {"sdtm_domain": "RP", "sdtm_variable": "RPCAT", "sdtm_label": "Category for Reproductive Test", "codelist": "RPCAT", "codelist_name": "Category for Repro System Findings", "codelist_code": "AZC00346"}, "RP.RPSCAT": {"sdtm_domain": "RP", "sdtm_variable": "RPSCAT", "sdtm_label": "Subcategory for Reproductive Test", "codelist": "RPSCAT", "codelist_name": "Subcategory for Repro System Findings", "codelist_code": "AZC00347"}, "RP.RPTEST": {"sdtm_domain": "RP", "sdtm_variable": "RPTEST", "sdtm_label": "Name of Reproductive Test", "codelist": "RPTEST", "codelist_name": "Reproductive System Findings Test Name", "codelist_code": "C106478"}, "RP.RPTESTCD": {"sdtm_domain": "RP", "sdtm_variable": "RPTESTCD", "sdtm_label": "Short Name of Reproductive Test", "codelist": "RPTESTCD", "codelist_name": "Reproductive System Findings Test Code", "codelist_code": "C106479"}, "CP.CPRESSCL": {"sdtm_domain": "CP", "sdtm_variable": "CPRESSCL", "sdtm_label": "Result Scale", "codelist": "RSLSCLRS", "codelist_name": "Result Scale Response", "codelist_code": "C177910"}, "LB.LBRESSCL": {"sdtm_domain": "LB", "sdtm_variable": "LBRESSCL", "sdtm_label": "Result Scale", "codelist": "RSLSCLRS", "codelist_name": "Result Scale Response", "codelist_code": "C177910"}, "RS.RSREASND": {"sdtm_domain": "RS", "sdtm_variable": "RSREASND", "sdtm_label": "Reason Not Done", "codelist": "RSREASND", "codelist_name": "Reason Not Done", "codelist_code": "AZC02564"}, "RS.RSSCAT": {"sdtm_domain": "RS", "sdtm_variable": "RSSCAT", "sdtm_label": "Subcategory", "codelist": "RSSCAT", "codelist_name": "Subcategory", "codelist_code": "AZC00525"}, "RS.RSSTTPT": {"sdtm_domain": "RS", "sdtm_variable": "RSSTTPT", "sdtm_label": "Start Reference Time Point", "codelist": "RSSTTPT", "codelist_name": "Start Reference Time Point", "codelist_code": "AZC02622"}, "RS.RSTPT": {"sdtm_domain": "RS", "sdtm_variable": "RSTPT", "sdtm_label": "Planned Time Point Name", "codelist": "RSTPT", "codelist_name": "Planned Time Point Name", "codelist_code": "AZC02706"}, "SUPPCM.RSTRLOC": {"sdtm_domain": "SUPPCM", "sdtm_variable": "RSTRLOC", "sdtm_label": "Radiotherapy Site/Region Treated Locatio", "codelist": "RSTRLOC", "codelist_name": "Radiotherapy Site/Region Treated Locatio", "codelist_code": "AZC00526"}, "SC.SCCAT": {"sdtm_domain": "SC", "sdtm_variable": "SCCAT", "sdtm_label": "Category for Subject Characteristic", "codelist": "SCCAT", "codelist_name": "Category for Subject Characteristic", "codelist_code": "AZC00528"}, "SC.SCTEST": {"sdtm_domain": "SC", "sdtm_variable": "SCTEST", "sdtm_label": "Subject Characteristic", "codelist": "SCTEST", "codelist_name": "Subject Characteristic Test Name", "codelist_code": "C103330"}, "SC.SCTESTCD": {"sdtm_domain": "SC", "sdtm_variable": "SCTESTCD", "sdtm_label": "Subject Characteristic Short Name", "codelist": "SCTESTCD", "codelist_name": "Subject Characteristic Test Code", "codelist_code": "C74559"}, "SUPPFA.SECMALIG": {"sdtm_domain": "SUPPFA", "sdtm_variable": "SECMALIG", "sdtm_label": "Secondary Malignancy", "codelist": "SECMALIG", "codelist_name": "Secondary Malignancy", "codelist_code": "AZC00530"}, "CE.CESEV": {"sdtm_domain": "CE", "sdtm_variable": "CESEV", "sdtm_label": "Severity/Intensity", "codelist": "SEVRS", "codelist_name": "Severity Response", "codelist_code": "C165643"}, "DM.SEX": {"sdtm_domain": "DM", "sdtm_variable": "SEX", "sdtm_label": "Sex", "codelist": "SEX", "codelist_name": "Sex", "codelist_code": "C66731"}, "SUPPTU.SLRSIT": {"sdtm_domain": "SUPPTU", "sdtm_variable": "SLRSIT", "sdtm_label": "Specific Liver Location", "codelist": "SLRSIT", "codelist_name": "Specific Liver Location", "codelist_code": "AZC00531"}, "SUPPCE.SOLARSEV": {"sdtm_domain": "SUPPCE", "sdtm_variable": "SOLARSEV", "sdtm_label": "Maximum Intensity after end of eDiary", "codelist": "SOLARSEV", "codelist_name": "Maximum Intensity after end of eDiary", "codelist_code": "AZC02510"}, "SUPPPC.SPECCOLF": {"sdtm_domain": "SUPPPC", "sdtm_variable": "SPECCOLF", "sdtm_label": "Biofluid Collected (Parent Sample)", "codelist": "SPECCOLF", "codelist_name": "Biofluid Collected (Parent Sample)", "codelist_code": "AZC02625"}, "BS.BSSPCCND": {"sdtm_domain": "BS", "sdtm_variable": "BSSPCCND", "sdtm_label": "Specimen Condition", "codelist": "SPECCOND", "codelist_name": "Specimen Condition", "codelist_code": "C78733"}, "CP.CPSPCCND": {"sdtm_domain": "CP", "sdtm_variable": "CPSPCCND", "sdtm_label": "Specimen Condition", "codelist": "SPECCOND", "codelist_name": "Specimen Condition", "codelist_code": "C78733"}, "IS.ISSPCCND": {"sdtm_domain": "IS", "sdtm_variable": "ISSPCCND", "sdtm_label": "Specimen Condition", "codelist": "SPECCOND", "codelist_name": "Specimen Condition", "codelist_code": "C78733"}, "LB.LBSPCCND": {"sdtm_domain": "LB", "sdtm_variable": "LBSPCCND", "sdtm_label": "Specimen Condition", "codelist": "SPECCOND", "codelist_name": "Specimen Condition", "codelist_code": "C78733"}, "MB.MBSPCCND": {"sdtm_domain": "MB", "sdtm_variable": "MBSPCCND", "sdtm_label": "Specimen Condition", "codelist": "SPECCOND", "codelist_name": "Specimen Condition", "codelist_code": "C78733"}, "MI.MISPCCND": {"sdtm_domain": "MI", "sdtm_variable": "MISPCCND", "sdtm_label": "Specimen Condition", "codelist": "SPECCOND", "codelist_name": "Specimen Condition", "codelist_code": "C78733"}, "MS.MSSPCCND": {"sdtm_domain": "MS", "sdtm_variable": "MSSPCCND", "sdtm_label": "Specimen Condition", "codelist": "SPECCOND", "codelist_name": "Specimen Condition", "codelist_code": "C78733"}, "PC.PCSPCCND": {"sdtm_domain": "PC", "sdtm_variable": "PCSPCCND", "sdtm_label": "Specimen Condition", "codelist": "SPECCOND", "codelist_name": "Specimen Condition", "codelist_code": "C78733"}, "PF.PFSPCCND": {"sdtm_domain": "PF", "sdtm_variable": "PFSPCCND", "sdtm_label": "Specimen Condition", "codelist": "SPECCOND", "codelist_name": "Specimen Condition", "codelist_code": "C78733"}, "PG.PGSPCCND": {"sdtm_domain": "PG", "sdtm_variable": "PGSPCCND", "sdtm_label": "Specimen Condition", "codelist": "SPECCOND", "codelist_name": "Specimen Condition", "codelist_code": "C78733"}, "VR.VRSPCCND": {"sdtm_domain": "VR", "sdtm_variable": "VRSPCCND", "sdtm_label": "Specimen Condition", "codelist": "SPECCOND", "codelist_name": "Specimen Condition", "codelist_code": "C78733"}, "CP.CPSPEC": {"sdtm_domain": "CP", "sdtm_variable": "CPSPEC", "sdtm_label": "Specimen Type", "codelist": "SPECTYPE", "codelist_name": "Specimen Type", "codelist_code": "C78734"}, "FA.FASPEC": {"sdtm_domain": "FA", "sdtm_variable": "FASPEC", "sdtm_label": "Specimen Material Type", "codelist": "SPECTYPE", "codelist_name": "Specimen Type", "codelist_code": "C78734"}, "IS.ISSPEC": {"sdtm_domain": "IS", "sdtm_variable": "ISSPEC", "sdtm_label": "Specimen Type", "codelist": "SPECTYPE", "codelist_name": "Specimen Type", "codelist_code": "C78734"}, "LB.LBSPEC": {"sdtm_domain": "LB", "sdtm_variable": "LBSPEC", "sdtm_label": "Specimen Type", "codelist": "SPECTYPE", "codelist_name": "Specimen Type", "codelist_code": "C78734"}, "LC.LCSPEC": {"sdtm_domain": "LC", "sdtm_variable": "LCSPEC", "sdtm_label": "Specimen Type", "codelist": "SPECTYPE", "codelist_name": "Specimen Type", "codelist_code": "C78734"}, "MB.MBSPEC": {"sdtm_domain": "MB", "sdtm_variable": "MBSPEC", "sdtm_label": "Specimen Material Type", "codelist": "SPECTYPE", "codelist_name": "Specimen Type", "codelist_code": "C78734"}, "MI.MISPEC": {"sdtm_domain": "MI", "sdtm_variable": "MISPEC", "sdtm_label": "Specimen Material Type", "codelist": "SPECTYPE", "codelist_name": "Specimen Type", "codelist_code": "C78734"}, "MS.MSSPEC": {"sdtm_domain": "MS", "sdtm_variable": "MSSPEC", "sdtm_label": "Specimen Material Type", "codelist": "SPECTYPE", "codelist_name": "Specimen Type", "codelist_code": "C78734"}, "PC.PCSPEC": {"sdtm_domain": "PC", "sdtm_variable": "PCSPEC", "sdtm_label": "Specimen Material Type", "codelist": "SPECTYPE", "codelist_name": "Specimen Type", "codelist_code": "C78734"}, "PP.PPSPEC": {"sdtm_domain": "PP", "sdtm_variable": "PPSPEC", "sdtm_label": "Specimen Material Type", "codelist": "SPECTYPE", "codelist_name": "Specimen Type", "codelist_code": "C78734"}, "SC.SCSPEC": {"sdtm_domain": "SC", "sdtm_variable": "SCSPEC", "sdtm_label": "Specimen Material Type", "codelist": "SPECTYPE", "codelist_name": "Specimen Type", "codelist_code": "C78734"}, "SR.SRSPEC": {"sdtm_domain": "SR", "sdtm_variable": "SRSPEC", "sdtm_label": "Specimen Type", "codelist": "SPECTYPE", "codelist_name": "Specimen Type", "codelist_code": "C78734"}, "SR.SRTEST": {"sdtm_domain": "SR", "sdtm_variable": "SRTEST", "sdtm_label": "Skin Response Test or Examination Name", "codelist": "SRTEST", "codelist_name": "Skin Response Test Name", "codelist_code": "C112023"}, "SR.SRTESTCD": {"sdtm_domain": "SR", "sdtm_variable": "SRTESTCD", "sdtm_label": "Skin Response Test or Exam Short Name", "codelist": "SRTESTCD", "codelist_name": "Skin Response Test Code", "codelist_code": "C112024"}, "SS.SSCAT": {"sdtm_domain": "SS", "sdtm_variable": "SSCAT", "sdtm_label": "Category for Assessment", "codelist": "SSCAT", "codelist_name": "Category for Assessment", "codelist_code": "AZC00533"}, "SS.SSSTRESC": {"sdtm_domain": "SS", "sdtm_variable": "SSSTRESC", "sdtm_label": "Character Result/Finding in Std Format", "codelist": "SSTATRS", "codelist_name": "Subject Status Response", "codelist_code": "C124304"}, "SS.SSTEST": {"sdtm_domain": "SS", "sdtm_variable": "SSTEST", "sdtm_label": "Status Name", "codelist": "SSTEST", "codelist_name": "Subject Status Test Name", "codelist_code": "C124306"}, "SS.SSTESTCD": {"sdtm_domain": "SS", "sdtm_variable": "SSTESTCD", "sdtm_label": "Status Short Name", "codelist": "SSTESTCD", "codelist_name": "Subject Status Test Code", "codelist_code": "C124305"}, "AE.AEENRF": {"sdtm_domain": "AE", "sdtm_variable": "AEENRF", "sdtm_label": "End Relative to Reference Period", "codelist": "STENRF", "codelist_name": "Relation to Reference Period", "codelist_code": "C66728"}, "AE.AEENRTPT": {"sdtm_domain": "AE", "sdtm_variable": "AEENRTPT", "sdtm_label": "End Relative to Reference Time Point", "codelist": "STENRF", "codelist_name": "Relation to Reference Period", "codelist_code": "C66728"}, "AG.AGENRF": {"sdtm_domain": "AG", "sdtm_variable": "AGENRF", "sdtm_label": "End Relative to Reference Period", "codelist": "STENRF", "codelist_name": "Relation to Reference Period", "codelist_code": "C66728"}, "AG.AGENRTPT": {"sdtm_domain": "AG", "sdtm_variable": "AGENRTPT", "sdtm_label": "End Relative to Reference Time Point", "codelist": "STENRF", "codelist_name": "Relation to Reference Period", "codelist_code": "C66728"}, "AG.AGSTRF": {"sdtm_domain": "AG", "sdtm_variable": "AGSTRF", "sdtm_label": "Start Relative to Reference Period", "codelist": "STENRF", "codelist_name": "Relation to Reference Period", "codelist_code": "C66728"}, "AG.AGSTRTPT": {"sdtm_domain": "AG", "sdtm_variable": "AGSTRTPT", "sdtm_label": "Start Relative to Reference Time Point", "codelist": "STENRF", "codelist_name": "Relation to Reference Period", "codelist_code": "C66728"}, "CE.CEENRF": {"sdtm_domain": "CE", "sdtm_variable": "CEENRF", "sdtm_label": "End Relative to Reference Period", "codelist": "STENRF", "codelist_name": "Relation to Reference Period", "codelist_code": "C66728"}, "CE.CEENRTPT": {"sdtm_domain": "CE", "sdtm_variable": "CEENRTPT", "sdtm_label": "End Relative to Reference Time Point", "codelist": "STENRF", "codelist_name": "Relation to Reference Period", "codelist_code": "C66728"}, "CE.CESTRF": {"sdtm_domain": "CE", "sdtm_variable": "CESTRF", "sdtm_label": "Start Relative to Reference Period", "codelist": "STENRF", "codelist_name": "Relation to Reference Period", "codelist_code": "C66728"}, "CE.CESTRTPT": {"sdtm_domain": "CE", "sdtm_variable": "CESTRTPT", "sdtm_label": "Start Relative to Reference Time Point", "codelist": "STENRF", "codelist_name": "Relation to Reference Period", "codelist_code": "C66728"}, "CM.CMENRF": {"sdtm_domain": "CM", "sdtm_variable": "CMENRF", "sdtm_label": "End Relative to Reference Period", "codelist": "STENRF", "codelist_name": "Relation to Reference Period", "codelist_code": "C66728"}, "CM.CMENRTPT": {"sdtm_domain": "CM", "sdtm_variable": "CMENRTPT", "sdtm_label": "End Relative to Reference Time Point", "codelist": "STENRF", "codelist_name": "Relation to Reference Period", "codelist_code": "C66728"}, "CM.CMSTRF": {"sdtm_domain": "CM", "sdtm_variable": "CMSTRF", "sdtm_label": "Start Relative to Reference Period", "codelist": "STENRF", "codelist_name": "Relation to Reference Period", "codelist_code": "C66728"}, "CM.CMSTRTPT": {"sdtm_domain": "CM", "sdtm_variable": "CMSTRTPT", "sdtm_label": "Start Relative to Reference Time Point", "codelist": "STENRF", "codelist_name": "Relation to Reference Period", "codelist_code": "C66728"}, "EC.ECENRTPT": {"sdtm_domain": "EC", "sdtm_variable": "ECENRTPT", "sdtm_label": "End Relative to Reference Time Point", "codelist": "STENRF", "codelist_name": "Relation to Reference Period", "codelist_code": "C66728"}, "FA.FAENRTPT": {"sdtm_domain": "FA", "sdtm_variable": "FAENRTPT", "sdtm_label": "End Relative to Reference Time Point", "codelist": "STENRF", "codelist_name": "Relation to Reference Period", "codelist_code": "C66728"}, "HO.HOENRTPT": {"sdtm_domain": "HO", "sdtm_variable": "HOENRTPT", "sdtm_label": "End Relative to Reference Time Point", "codelist": "STENRF", "codelist_name": "Relation to Reference Period", "codelist_code": "C66728"}, "HO.HOSTRTPT": {"sdtm_domain": "HO", "sdtm_variable": "HOSTRTPT", "sdtm_label": "Start Relative to Reference Time Point", "codelist": "STENRF", "codelist_name": "Relation to Reference Period", "codelist_code": "C66728"}, "MH.MHENRF": {"sdtm_domain": "MH", "sdtm_variable": "MHENRF", "sdtm_label": "End Relative to Reference Period", "codelist": "STENRF", "codelist_name": "Relation to Reference Period", "codelist_code": "C66728"}, "MH.MHENRTPT": {"sdtm_domain": "MH", "sdtm_variable": "MHENRTPT", "sdtm_label": "End Relative to Reference Time Point", "codelist": "STENRF", "codelist_name": "Relation to Reference Period", "codelist_code": "C66728"}, "ML.MLENRF": {"sdtm_domain": "ML", "sdtm_variable": "MLENRF", "sdtm_label": "End Relative to Reference Period", "codelist": "STENRF", "codelist_name": "Relation to Reference Period", "codelist_code": "C66728"}, "ML.MLENRTPT": {"sdtm_domain": "ML", "sdtm_variable": "MLENRTPT", "sdtm_label": "End Relative to Reference Time Point", "codelist": "STENRF", "codelist_name": "Relation to Reference Period", "codelist_code": "C66728"}, "ML.MLSTRF": {"sdtm_domain": "ML", "sdtm_variable": "MLSTRF", "sdtm_label": "Start Relative to Reference Period", "codelist": "STENRF", "codelist_name": "Relation to Reference Period", "codelist_code": "C66728"}, "ML.MLSTRTPT": {"sdtm_domain": "ML", "sdtm_variable": "MLSTRTPT", "sdtm_label": "Start Relative to Reference Time Point", "codelist": "STENRF", "codelist_name": "Relation to Reference Period", "codelist_code": "C66728"}, "PR.PRENRTPT": {"sdtm_domain": "PR", "sdtm_variable": "PRENRTPT", "sdtm_label": "End Relative to Reference Time Point", "codelist": "STENRF", "codelist_name": "Relation to Reference Period", "codelist_code": "C66728"}, "PR.PRSTRTPT": {"sdtm_domain": "PR", "sdtm_variable": "PRSTRTPT", "sdtm_label": "Start Relative to Reference Time Point", "codelist": "STENRF", "codelist_name": "Relation to Reference Period", "codelist_code": "C66728"}, "RS.RSENRTPT": {"sdtm_domain": "RS", "sdtm_variable": "RSENRTPT", "sdtm_label": "End Relative to Reference Time Point", "codelist": "STENRF", "codelist_name": "Relation to Reference Period", "codelist_code": "C66728"}, "RS.RSSTRTPT": {"sdtm_domain": "RS", "sdtm_variable": "RSSTRTPT", "sdtm_label": "Start Relative to Reference Time Point", "codelist": "STENRF", "codelist_name": "Relation to Reference Period", "codelist_code": "C66728"}, "SU.SUENRF": {"sdtm_domain": "SU", "sdtm_variable": "SUENRF", "sdtm_label": "End Relative to Reference Period", "codelist": "STENRF", "codelist_name": "Relation to Reference Period", "codelist_code": "C66728"}, "SU.SUENRTPT": {"sdtm_domain": "SU", "sdtm_variable": "SUENRTPT", "sdtm_label": "End Relative to Reference Time Point", "codelist": "STENRF", "codelist_name": "Relation to Reference Period", "codelist_code": "C66728"}, "SU.SUSTRF": {"sdtm_domain": "SU", "sdtm_variable": "SUSTRF", "sdtm_label": "Start Relative to Reference Period", "codelist": "STENRF", "codelist_name": "Relation to Reference Period", "codelist_code": "C66728"}, "SU.SUSTRTPT": {"sdtm_domain": "SU", "sdtm_variable": "SUSTRTPT", "sdtm_label": "Start Relative to Reference Time Point", "codelist": "STENRF", "codelist_name": "Relation to Reference Period", "codelist_code": "C66728"}, "SU.SUCAT": {"sdtm_domain": "SU", "sdtm_variable": "SUCAT", "sdtm_label": "Category for Substance Use", "codelist": "SUCAT", "codelist_name": "Category for Substance Use", "codelist_code": "AZC00536"}, "SUPPFT.SUITTST": {"sdtm_domain": "SUPPFT", "sdtm_variable": "SUITTST", "sdtm_label": "Subject Suitable for Test", "codelist": "SUITTST", "codelist_name": "Subject Suitable for Test", "codelist_code": "AZC00539"}, "SUPPPR.SURGTYP": {"sdtm_domain": "SUPPPR", "sdtm_variable": "SURGTYP", "sdtm_label": "Surgery/Procedure Performed", "codelist": "SURGTYP", "codelist_name": "Surgery/Procedure Performed", "codelist_code": "AZC02374"}, "GF.GFSYMTYP": {"sdtm_domain": "GF", "sdtm_variable": "GFSYMTYP", "sdtm_label": "Genomic Symbol Type", "codelist": "SYMTYPGF", "codelist_name": "Genomic Symbol Type Response", "codelist_code": "C181176"}, "CP.CPTSTCND": {"sdtm_domain": "CP", "sdtm_variable": "CPTSTCND", "sdtm_label": "Test Condition", "codelist": "TESTCOND", "codelist_name": "Test Condition Response", "codelist_code": "C181175"}, "IS.ISTSTCND": {"sdtm_domain": "IS", "sdtm_variable": "ISTSTCND", "sdtm_label": "Test Condition", "codelist": "TESTCOND", "codelist_name": "Test Condition Response", "codelist_code": "C181175"}, "LB.LBTSTCND": {"sdtm_domain": "LB", "sdtm_variable": "LBTSTCND", "sdtm_label": "Test Condition", "codelist": "TESTCOND", "codelist_name": "Test Condition Response", "codelist_code": "C181175"}, "SUPPTU.TLRFL": {"sdtm_domain": "SUPPTU", "sdtm_variable": "TLRFL", "sdtm_label": "Target Lesion Radiation Field Location", "codelist": "TLRFL", "codelist_name": "Target Lesion Radiation Field Location", "codelist_code": "AZC02438"}, "TR.TRCAT": {"sdtm_domain": "TR", "sdtm_variable": "TRCAT", "sdtm_label": "Category", "codelist": "TRCAT", "codelist_name": "Category", "codelist_code": "AZC00137"}, "SUPPCM.CMREEOEN": {"sdtm_domain": "SUPPCM", "sdtm_variable": "CMREEOEN", "sdtm_label": "Therapy Reason, EoE Details", "codelist": "TREEOEN", "codelist_name": "Therapy Reason, EoE Details", "codelist_code": "AZC02308"}, "SUPPEC.ECREEOEN": {"sdtm_domain"