{
  "AE": [
    {
      "dataset": "AE",
      "variable": "STUDYID",
      "label": "Study Identifier",
      "label_normalized": "study identifier",
      "type": "C",
      "length": "21",
      "core": "Req",
      "role": "Identifier",
      "format": "",
      "codelist_code": "",
      "seq": "1",
      "origin": "Protocol",
      "dataset_level": "Corporate",
      "is_supplemental": false,
      "base_domain": "AE"
    },
    {
      "dataset": "AE",
      "variable": "DOMAIN",
      "label": "Domain Abbreviation",
      "label_normalized": "domain abbreviation",
      "type": "C",
      "length": "8",
      "core": "Req",
      "role": "Identifier",
      "format": "(DOMAIN)",
      "codelist_code": "",
      "seq": "2",
      "origin": "Assigned",
      "dataset_level": "Corporate",
      "is_supplemental": false,
      "base_domain": "AE"
    },
    {
      "dataset": "AE",
      "variable": "USUBJID",
      "label": "Unique Subject Identifier",
      "label_normalized": "unique subject identifier",
      "type": "C",
      "length": "30",
      "core": "Req",
      "role": "Identifier",
      "format": "",
      "codelist_code": "",
      "seq": "3",
      "origin": "Derived",
      "dataset_level": "Corporate",
      "is_supplemental": false,
      "base_domain": "AE"
    },
    {
      "dataset": "AE",
      "variable": "SPDEVID",
      "label": "Sponsor Device Identifier",
      "label_normalized": "sponsor device identifier",
      "type": "C",
      "length": "40",
      "core": "Perm",
      "role": "Identifier",
      "format": "",
      "codelist_code": "",
      "seq": "4",
      "origin": "",
      "dataset_level": "Corporate",
      "is_supplemental": false,
      "base_domain": "AE"
    },
    {
      "dataset": "AE",
      "variable": "AESEQ",
      "label": "Sequence Number",
      "label_normalized": "sequence number",
      "type": "N",
      "length": "8",
      "core": "Req",
      "role": "Identifier",
      "format": "",
      "codelist_code": "",
      "seq": "5",
      "origin": "Derived",
      "dataset_level": "Corporate",
      "is_supplemental": false,
      "base_domain": "AE"
    },
    {
      "dataset": "AE",
      "variable": "AEGRPID",
      "label": "Group ID",
      "label_normalized": "group id",
      "type": "C",
      "length": "40",
      "core": "Perm",
      "role": "Identifier",
      "format": "",
      "codelist_code": "",
      "seq": "6",
      "origin": "Derived",
      "dataset_level": "Corporate",
      "is_supplemental": false,
      "base_domain": "AE"
    },
    {
      "dataset": "AE",
      "variable": "AEREFID",
      "label": "Reference ID",
      "label_normalized": "reference id",
      "type": "C",
      "length": "40",
      "core": "Perm",
      "role": "Identifier",
      "format": "",
      "codelist_code": "",
      "seq": "7",
      "origin": "Assigned",
      "dataset_level": "Corporate",
      "is_supplemental": false,
      "base_domain": "AE"
    },
    {
      "dataset": "AE",
      "variable": "AESPID",
      "label": "Sponsor-Defined Identifier",
      "label_normalized": "sponsor-defined identifier",
      "type": "C",
      "length": "40",
      "core": "Perm",
      "role": "Identifier",
      "format": "",
      "codelist_code": "",
      "seq": "8",
      "origin": "CRF",
      "dataset_level": "Corporate",
      "is_supplemental": false,
      "base_domain": "AE"
    },
    {
      "dataset": "AE",
      "variable": "AELNKID",
      "label": "Link ID",
      "label_normalized": "link id",
      "type": "C",
      "length": "40",
      "core": "Perm",
      "role": "Identifier",
      "format": "",
      "codelist_code": "",
      "seq": "9",
      "origin": "Assigned",
      "dataset_level": "Corporate",
      "is_supplemental": false,
      "base_domain": "AE"
    },
    {
      "dataset": "AE",
      "variable": "AELNKGRP",
      "label": "Link Group ID",
      "label_normalized": "link group id",
      "type": "C",
      "length": "40",
      "core": "Perm",
      "role": "Identifier",
      "format": "",
      "codelist_code": "",
      "seq": "10",
      "origin": "Assigned",
      "dataset_level": "Corporate",
      "is_supplemental": false,
      "base_domain": "AE"
    },
    {
      "dataset": "AE",
      "variable": "AETERM",
      "label": "Reported Term for the Adverse Event",
      "label_normalized": "reported term for the adverse event",
      "type": "C",
      "length": "200",
      "core": "Req",
      "role": "Topic",
      "format": "",
      "codelist_code": "",
      "seq": "11",
      "origin": "CRF",
      "dataset_level": "Corporate",
      "is_supplemental": false,
      "base_domain": "AE"
    },
    {
      "dataset": "AE",
      "variable": "AEMODIFY",
      "label": "Modified Reported Term",
      "label_normalized": "modified reported term",
      "type": "C",
      "length": "200",
      "core": "Perm",
      "role": "Synonym Qualifier",
      "format": "",
      "codelist_code": "",
      "seq": "12",
      "origin": "Assigned",
      "dataset_level": "Corporate",
      "is_supplemental": false,
      "base_domain": "AE"
    },
    {
      "dataset": "AE",
      "variable": "AELLT",
      "label": "Lowest Level Term",
      "label_normalized": "lowest level term",
      "type": "C",
      "length": "200",
      "core": "Exp",
      "role": "Variable Qualifier",
      "format": "MedDRA",
      "codelist_code": "",
      "seq": "13",
      "origin": "Assigned",
      "dataset_level": "Corporate",
      "is_supplemental": false,
      "base_domain": "AE"
    },
    {
      "dataset": "AE",
      "variable": "AELLTCD",
      "label": "Lowest Level Term Code",
      "label_normalized": "lowest level term code",
      "type": "N",
      "length": "8",
      "core": "Exp",
      "role": "Variable Qualifier",
      "format": "MedDRA",
      "codelist_code": "",
      "seq": "14",
      "origin": "Assigned",
      "dataset_level": "Corporate",
      "is_supplemental": false,
      "base_domain": "AE"
    },
    {
      "dataset": "AE",
      "variable": "AEDECOD",
      "label": "Dictionary-Derived Term",
      "label_normalized": "dictionary-derived term",
      "type": "C",
      "length": "200",
      "core": "Req",
      "role": "Synonym Qualifier",
      "format": "MedDRA",
      "codelist_code": "",
      "seq": "15",
      "origin": "Assigned",
      "dataset_level": "Corporate",
      "is_supplemental": false,
      "base_domain": "AE"
    },
    {
      "dataset": "AE",
      "variable": "AEPTCD",
      "label": "Preferred Term Code",
      "label_normalized": "preferred term code",
      "type": "N",
      "length": "8",
      "core": "Exp",
      "role": "Variable Qualifier",
      "format": "MedDRA",
      "codelist_code": "",
      "seq": "16",
      "origin": "Assigned",
      "dataset_level": "Corporate",
      "is_supplemental": false,
      "base_domain": "AE"
    },
    {
      "dataset": "AE",
      "variable": "AEHLT",
      "label": "High Level Term",
      "label_normalized": "high level term",
      "type": "C",
      "length": "200",
      "core": "Exp",
      "role": "Variable Qualifier",
      "format": "MedDRA",
      "codelist_code": "",
      "seq": "17",
      "origin": "Assigned",
      "dataset_level": "Corporate",
      "is_supplemental": false,
      "base_domain": "AE"
    },
    {
      "dataset": "AE",
      "variable": "AEHLTCD",
      "label": "High Level Term Code",
      "label_normalized": "high level term code",
      "type": "N",
      "length": "8",
      "core": "Exp",
      "role": "Variable Qualifier",
      "format": "MedDRA",
      "codelist_code": "",
      "seq": "18",
      "origin": "Assigned",
      "dataset_level": "Corporate",
      "is_supplemental": false,
      "base_domain": "AE"
    },
    {
      "dataset": "AE",
      "variable": "AEHLGT",
      "label": "High Level Group Term",
      "label_normalized": "high level group term",
      "type": "C",
      "length": "200",
      "core": "Exp",
      "role": "Variable Qualifier",
      "format": "MedDRA",
      "codelist_code": "",
      "seq": "19",
      "origin": "Assigned",
      "dataset_level": "Corporate",
      "is_supplemental": false,
      "base_domain": "AE"
    },
    {
      "dataset": "AE",
      "variable": "AEHLGTCD",
      "label": "High Level Group Term Code",
      "label_normalized": "high level group term code",
      "type": "N",
      "length": "8",
      "core": "Exp",
      "role": "Variable Qualifier",
      "format": "MedDRA",
      "codelist_code": "",
      "seq": "20",
      "origin": "Assigned",
      "dataset_level": "Corporate",
      "is_supplemental": false,
      "base_domain": "AE"
    },
    {
      "dataset": "AE",
      "variable": "AECAT",
      "label": "Category for Adverse Event",
      "label_normalized": "category for adverse event",
      "type": "C",
      "length": "200",
      "core": "Perm",
      "role": "Grouping Qualifier",
      "format": "",
      "codelist_code": "",
      "seq": "21",
      "origin": "Assigned",
      "dataset_level": "Corporate",
      "is_supplemental": false,
      "base_domain": "AE"
    },
    {
      "dataset": "AE",
      "variable": "AESCAT",
      "label": "Subcategory for Adverse Event",
      "label_normalized": "subcategory for adverse event",
      "type": "C",
      "length": "40",
      "core": "Perm",
      "role": "Grouping Qualifier",
      "format": "",
      "codelist_code": "",
      "seq": "22",
      "origin": "Assigned",
      "dataset_level": "Corporate",
      "is_supplemental": false,
      "base_domain": "AE"
    },
    {
      "dataset": "AE",
      "variable": "AEPRESP",
      "label": "Pre-Specified Adverse Event",
      "label_normalized": "pre-specified adverse event",
      "type": "C",
      "length": "1",
      "core": "Perm",
      "role": "Variable Qualifier",
      "format": "(NY)",
      "codelist_code": "",
      "seq": "23",
      "origin": "Assigned",
      "dataset_level": "Corporate",
      "is_supplemental": false,
      "base_domain": "AE"
    },
    {
      "dataset": "AE",
      "variable": "AEBODSYS",
      "label": "Body System or Organ Class",
      "label_normalized": "body system or organ class",
      "type": "C",
      "length": "200",
      "core": "Exp",
      "role": "Record Qualifier",
      "format": "",
      "codelist_code": "",
      "seq": "24",
      "origin": "Assigned",
      "dataset_level": "Corporate",
      "is_supplemental": false,
      "base_domain": "AE"
    },
    {
      "dataset": "AE",
      "variable": "AEBDSYCD",
      "label": "Body System or Organ Class Code",
      "label_normalized": "body system or organ class code",
      "type": "N",
      "length": "8",
      "core": "Exp",
      "role": "Variable Qualifier",
      "format": "MedDRA",
      "codelist_code": "",
      "seq": "25",
      "origin": "Assigned",
      "dataset_level": "Corporate",
      "is_supplemental": false,
      "base_domain": "AE"
    },
    {
      "dataset": "AE",
      "variable": "AESOC",
      "label": "Primary System Organ Class",
      "label_normalized": "primary system organ class",
      "type": "C",
      "length": "200",
      "core": "Exp",
      "role": "Variable Qualifier",
      "format": "MedDRA",
      "codelist_code": "",
      "seq": "26",
      "origin": "Assigned",
      "dataset_level": "Corporate",
      "is_supplemental": false,
      "base_domain": "AE"
    },
    {
      "dataset": "AE",
      "variable": "AESOCCD",
      "label": "Primary System Organ Class Code",
      "label_normalized": "primary system organ class code",
      "type": "N",
      "length": "8",
      "core": "Exp",
      "role": "Variable Qualifier",
      "format": "MedDRA",
      "codelist_code": "",
      "seq": "27",
      "origin": "Assigned",
      "dataset_level": "Corporate",
      "is_supplemental": false,
      "base_domain": "AE"
    },
    {
      "dataset": "AE",
      "variable": "AELOC",
      "label": "Location of Event",
      "label_normalized": "location of event",
      "type": "C",
      "length": "40",
      "core": "Perm",
      "role": "Record Qualifier",
      "format": "(LOC)",
      "codelist_code": "",
      "seq": "28",
      "origin": "CRF",
      "dataset_level": "Corporate",
      "is_supplemental": false,
      "base_domain": "AE"
    },
    {
      "dataset": "AE",
      "variable": "AESEV",
      "label": "Severity/Intensity",
      "label_normalized": "severity/intensity",
      "type": "C",
      "length": "20",
      "core": "Perm",
      "role": "Record Qualifier",
      "format": "(AESEV)",
      "codelist_code": "",
      "seq": "29",
      "origin": "CRF",
      "dataset_level": "Corporate",
      "is_supplemental": false,
      "base_domain": "AE"
    },
    {
      "dataset": "AE",
      "variable": "AESER",
      "label": "Serious Event",
      "label_normalized": "serious event",
      "type": "C",
      "length": "1",
      "core": "Exp",
      "role": "Record Qualifier",
      "format": "(NY)",
      "codelist_code": "",
      "seq": "30",
      "origin": "CRF",
      "dataset_level": "Corporate",
      "is_supplemental": false,
      "base_domain": "AE"
    },
    {
      "dataset": "AE",
      "variable": "AEACN",
      "label": "Action Taken with Study Treatment",
      "label_normalized": "action taken with study treatment",
      "type": "C",
      "length": "200",
      "core": "Exp",
      "role": "Record Qualifier",
      "format": "(ACN)",
      "codelist_code": "",
      "seq": "31",
      "origin": "CRF",
      "dataset_level": "Corporate",
      "is_supplemental": false,
      "base_domain": "AE"
    },
    {
      "dataset": "AE",
      "variable": "AEACNOTH",
      "label": "Other Action Taken",
      "label_normalized": "other action taken",
      "type": "C",
      "length": "200",
      "core": "Perm",
      "role": "Record Qualifier",
      "format": "",
      "codelist_code": "",
      "seq": "32",
      "origin": "CRF",
      "dataset_level": "Corporate",
      "is_supplemental": false,
      "base_domain": "AE"
    },
    {
      "dataset": "AE",
      "variable": "AEACNDEV",
      "label": "Action Taken with Device",
      "label_normalized": "action taken with device",
      "type": "C",
      "length": "200",
      "core": "Perm",
      "role": "Record Qualifier",
      "format": "(DEACNDEV)",
      "codelist_code": "",
      "seq": "33",
      "origin": "",
      "dataset_level": "Corporate",
      "is_supplemental": false,
      "base_domain": "AE"
    },
    {
      "dataset": "AE",
      "variable": "AEREL",
      "label": "Causality",
      "label_normalized": "causality",
      "type": "C",
      "length": "200",
      "core": "Exp",
      "role": "Record Qualifier",
      "format": "(AEREL)",
      "codelist_code": "",
      "seq": "34",
      "origin": "CRF",
      "dataset_level": "Corporate",
      "is_supplemental": false,
      "base_domain": "AE"
    },
    {
      "dataset": "AE",
      "variable": "AERLDEV",
      "label": "Relationship of Event to Device",
      "label_normalized": "relationship of event to device",
      "type": "C",
      "length": "200",
      "core": "Perm",
      "role": "Record Qualifier",
      "format": "",
      "codelist_code": "",
      "seq": "35",
      "origin": "",
      "dataset_level": "Corporate",
      "is_supplemental": false,
      "base_domain": "AE"
    },
    {
      "dataset": "AE",
      "variable": "AERELNST",
      "label": "Relationship to Non-Study Treatment",
      "label_normalized": "relationship to non-study treatment",
      "type": "C",
      "length": "200",
      "core": "Perm",
      "role": "Record Qualifier",
      "format": "",
      "codelist_code": "",
      "seq": "36",
      "origin": "CRF",
      "dataset_level": "Corporate",
      "is_supplemental": false,
      "base_domain": "AE"
    },
    {
      "dataset": "AE",
      "variable": "AEPATT",
      "label": "Pattern of Adverse Event",
      "label_normalized": "pattern of adverse event",
      "type": "C",
      "length": "40",
      "core": "Perm",
      "role": "Record Qualifier",
      "format": "",
      "codelist_code": "",
      "seq": "37",
      "origin": "CRF",
      "dataset_level": "Corporate",
      "is_supplemental": false,
      "base_domain": "AE"
    },
    {
      "dataset": "AE",
      "variable": "AEOUT",
      "label": "Outcome of Adverse Event",
      "label_normalized": "outcome of adverse event",
      "type": "C",
      "length": "200",
      "core": "Perm",
      "role": "Record Qualifier",
      "format": "(OUT)",
      "codelist_code": "",
      "seq": "38",
      "origin": "CRF",
      "dataset_level": "Corporate",
      "is_supplemental": false,
      "base_domain": "AE"
    },
    {
      "dataset": "AE",
      "variable": "AESCAN",
      "label": "Involves Cancer",
      "label_normalized": "involves cancer",
      "type": "C",
      "length": "1",
      "core": "Perm",
      "role": "Record Qualifier",
      "format": "(NY)",
      "codelist_code": "",
      "seq": "39",
      "origin": "CRF",
      "dataset_level": "Corporate",
      "is_supplemental": false,
      "base_domain": "AE"
    },
    {
      "dataset": "AE",
      "variable": "AESCONG",
      "label": "Congenital Anomaly or Birth Defect",
      "label_normalized": "congenital anomaly or birth defect",
      "type": "C",
      "length": "1",
      "core": "Perm",
      "role": "Record Qualifier",
      "format": "(NY)",
      "codelist_code": "",
      "seq": "40",
      "origin": "CRF",
      "dataset_level": "Corporate",
      "is_supplemental": false,
      "base_domain": "AE"
    },
    {
      "dataset": "AE",
      "variable": "AESDISAB",
      "label": "Persist or Signif Disability/Incapacity",
      "label_normalized": "persist or signif disability/incapacity",
      "type": "C",
      "length": "1",
      "core": "Perm",
      "role": "Record Qualifier",
      "format": "(NY)",
      "codelist_code": "",
      "seq": "41",
      "origin": "CRF",
      "dataset_level": "Corporate",
      "is_supplemental": false,
      "base_domain": "AE"
    },
    {
      "dataset": "AE",
      "variable": "AESDTH",
      "label": "Results in Death",
      "label_normalized": "results in death",
      "type": "C",
      "length": "1",
      "core": "Perm",
      "role": "Record Qualifier",
      "format": "(NY)",
      "codelist_code": "",
      "seq": "42",
      "origin": "CRF",
      "dataset_level": "Corporate",
      "is_supplemental": false,
      "base_domain": "AE"
    },
    {
      "dataset": "AE",
      "variable": "AESHOSP",
      "label": "Requires or Prolongs Hospitalization",
      "label_normalized": "requires or prolongs hospitalization",
      "type": "C",
      "length": "1",
      "core": "Perm",
      "role": "Record Qualifier",
      "format": "(NY)",
      "codelist_code": "",
      "seq": "43",
      "origin": "CRF",
      "dataset_level": "Corporate",
      "is_supplemental": false,
      "base_domain": "AE"
    },
    {
      "dataset": "AE",
      "variable": "AESLIFE",
      "label": "Is Life Threatening",
      "label_normalized": "is life threatening",
      "type": "C",
      "length": "1",
      "core": "Perm",
      "role": "Record Qualifier",
      "format": "(NY)",
      "codelist_code": "",
      "seq": "44",
      "origin": "CRF",
      "dataset_level": "Corporate",
      "is_supplemental": false,
      "base_domain": "AE"
    },
    {
      "dataset": "AE",
      "variable": "AESOD",
      "label": "Occurred with Overdose",
      "label_normalized": "occurred with overdose",
      "type": "C",
      "length": "1",
      "core": "Perm",
      "role": "Record Qualifier",
      "format": "(NY)",
      "codelist_code": "",
      "seq": "45",
      "origin": "CRF",
      "dataset_level": "Corporate",
      "is_supplemental": false,
      "base_domain": "AE"
    },
    {
      "dataset": "AE",
      "variable": "AESMIE",
      "label": "Other Medically Important Serious Event",
      "label_normalized": "other medically important serious event",
      "type": "C",
      "length": "1",
      "core": "Perm",
      "role": "Record Qualifier",
      "format": "(NY)",
      "codelist_code": "",
      "seq": "46",
      "origin": "CRF",
      "dataset_level": "Corporate",
      "is_supplemental": false,
      "base_domain": "AE"
    },
    {
      "dataset": "AE",
      "variable": "AESINTV",
      "label": "Needs Intervention to Prevent Impairment",
      "label_normalized": "needs intervention to prevent impairment",
      "type": "C",
      "length": "1",
      "core": "Perm",
      "role": "Record Qualifier",
      "format": "(NY)",
      "codelist_code": "",
      "seq": "47",
      "origin": "",
      "dataset_level": "Corporate",
      "is_supplemental": false,
      "base_domain": "AE"
    },
    {
      "dataset": "AE",
      "variable": "AEUNANT",
      "label": "Unanticipated Adverse Device Effect",
      "label_normalized": "unanticipated adverse device effect",
      "type": "C",
      "length": "1",
      "core": "Perm",
      "role": "Record Qualifier",
      "format": "(NY)",
      "codelist_code": "",
      "seq": "48",
      "origin": "",
      "dataset_level": "Corporate",
      "is_supplemental": false,
      "base_domain": "AE"
    },
    {
      "dataset": "AE",
      "variable": "AERLPRT",
      "label": "Rel of AE to Non-Dev-Rel Study Activity",
      "label_normalized": "rel of ae to non-dev-rel study activity",
      "type": "C",
      "length": "200",
      "core": "Perm",
      "role": "Record Qualifier",
      "format": "",
      "codelist_code": "",
      "seq": "49",
      "origin": "",
      "dataset_level": "Corporate",
      "is_supplemental": false,
      "base_domain": "AE"
    },
    {
      "dataset": "AE",
      "variable": "AERLPRC",
      "label": "Rel of AE to Device-Related Procedure",
      "label_normalized": "rel of ae to device-related procedure",
      "type": "C",
      "length": "200",
      "core": "Perm",
      "role": "Record Qualifier",
      "format": "",
      "codelist_code": "",
      "seq": "50",
      "origin": "",
      "dataset_level": "Corporate",
      "is_supplemental": false,
      "base_domain": "AE"
    },
    {
      "dataset": "AE",
      "variable": "AECONTRT",
      "label": "Concomitant or Additional Trtmnt Given",
      "label_normalized": "concomitant or additional trtmnt given",
      "type": "C",
      "length": "1",
      "core": "Perm",
      "role": "Record Qualifier",
      "format": "(NY)",
      "codelist_code": "",
      "seq": "51",
      "origin": "CRF",
      "dataset_level": "Corporate",
      "is_supplemental": false,
      "base_domain": "AE"
    },
    {
      "dataset": "AE",
      "variable": "AETOXGR",
      "label": "Standard Toxicity Grade",
      "label_normalized": "standard toxicity grade",
      "type": "C",
      "length": "1",
      "core": "Perm",
      "role": "Record Qualifier",
      "format": "",
      "codelist_code": "",
      "seq": "52",
      "origin": "CRF",
      "dataset_level": "Corporate",
      "is_supplemental": false,
      "base_domain": "AE"
    },
    {
      "dataset": "AE",
      "variable": "TAETORD",
      "label": "Planned Order of Element within Arm",
      "label_normalized": "planned order of element within arm",
      "type": "N",
      "length": "8",
      "core": "Perm",
      "role": "Timing",
      "format": "",
      "codelist_code": "",
      "seq": "53",
      "origin": "Protocol",
      "dataset_level": "Corporate",
      "is_supplemental": false,
      "base_domain": "AE"
    },
    {
      "dataset": "AE",
      "variable": "EPOCH",
      "label": "Epoch",
      "label_normalized": "epoch",
      "type": "C",
      "length": "40",
      "core": "Perm",
      "role": "Timing",
      "format": "(EPOCH)",
      "codelist_code": "",
      "seq": "54",
      "origin": "Protocol",
      "dataset_level": "Corporate",
      "is_supplemental": false,
      "base_domain": "AE"
    },
    {
      "dataset": "AE",
      "variable": "AESTDTC",
      "label": "Start Date/Time of Adverse Event",
      "label_normalized": "start date/time of adverse event",
      "type": "C",
      "length": "19",
      "core": "Exp",
      "role": "Timing",
      "format": "ISO 8601",
      "codelist_code": "",
      "seq": "55",
      "origin": "CRF",
      "dataset_level": "Corporate",
      "is_supplemental": false,
      "base_domain": "AE"
    },
    {
      "dataset": "AE",
      "variable": "AEENDTC",
      "label": "End Date/Time of Adverse Event",
      "label_normalized": "end date/time of adverse event",
      "type": "C",
      "length": "19",
      "core": "Exp",
      "role": "Timing",
      "format": "ISO 8601",
      "codelist_code": "",
      "seq": "56",
      "origin": "CRF",
      "dataset_level": "Corporate",
      "is_supplemental": false,
      "base_domain": "AE"
    },
    {
      "dataset": "AE",
      "variable": "AESTDY",
      "label": "Study Day of Start of Adverse Event",
      "label_normalized": "study day of start of adverse event",
      "type": "N",
      "length": "8",
      "core": "Perm",
      "role": "Timing",
      "format": "",
      "codelist_code": "",
      "seq": "57",
      "origin": "Derived",
      "dataset_level": "Corporate",
      "is_supplemental": false,
      "base_domain": "AE"
    },
    {
      "dataset": "AE",
      "variable": "AEENDY",
      "label": "Study Day of End of Adverse Event",
      "label_normalized": "study day of end of adverse event",
      "type": "N",
      "length": "8",
      "core": "Perm",
      "role": "Timing",
      "format": "",
      "codelist_code": "",
      "seq": "58",
      "origin": "Derived",
      "dataset_level": "Corporate",
      "is_supplemental": false,
      "base_domain": "AE"
    },
    {
      "dataset": "AE",
      "variable": "AEDUR",
      "label": "Duration of Adverse Event",
      "label_normalized": "duration of adverse event",
      "type": "C",
      "length": "40",
      "core": "Perm",
      "role": "Timing",
      "format": "ISO 8601",
      "codelist_code": "",
      "seq": "59",
      "origin": "CRF",
      "dataset_level": "Corporate",
      "is_supplemental": false,
      "base_domain": "AE"
    },
    {
      "dataset": "AE",
      "variable": "AESTRF",
      "label": "Start Relative to Reference Period",
      "label_normalized": "start relative to reference period",
      "type": "C",
      "length": "40",
      "core": "Perm",
      "role": "Timing",
      "format": "(STENRF)",
      "codelist_code": "",
      "seq": "60",
      "origin": "Assigned",
      "dataset_level": "Corporate",
      "is_supplemental": false,
      "base_domain": "AE"
    },
    {
      "dataset": "AE",
      "variable": "AEENRF",
      "label": "End Relative to Reference Period",
      "label_normalized": "end relative to reference period",
      "type": "C",
      "length": "40",
      "core": "Perm",
      "role": "Timing",
      "format": "(STENRF)",
      "codelist_code": "",
      "seq": "61",
      "origin": "Assigned",
      "dataset_level": "Corporate",
      "is_supplemental": false,
      "base_domain": "AE"
    },
    {
      "dataset": "AE",
      "variable": "AEENRTPT",
      "label": "End Relative to Reference Time Point",
      "label_normalized": "end relative to reference time point",
      "type": "C",
      "length": "40",
      "core": "Perm",
      "role": "Timing",
      "format": "(STENRF)",
      "codelist_code": "",
      "seq": "62",
      "origin": "Derived",
      "dataset_level": "Corporate",
      "is_supplemental": false,
      "base_domain": "AE"
    },
    {
      "dataset": "AE",
      "variable": "AEENTPT",
      "label": "End Reference Time Point",
      "label_normalized": "end reference time point",
      "type": "C",
      "length": "40",
      "core": "Perm",
      "role": "Timing",
      "format": "",
      "codelist_code": "",
      "seq": "63",
      "origin": "Derived",
      "dataset_level": "Corporate",
      "is_supplemental": false,
      "base_domain": "AE"
    },
    {
      "dataset": "AE",
      "variable": "AD",
      "label": "Additional Drug",
      "label_normalized": "additional drug",
      "type": "C",
      "length": "200",
      "core": "Supp",
      "role": "",
      "format": "",
      "codelist_code": "",
      "seq": "64",
      "origin": "CRF",
      "dataset_level": "Corporate",
      "is_supplemental": true,
      "base_domain": "AE"
    },
    {
      "dataset": "AE",
      "variable": "AD1",
      "label": "Additional Drug 1",
      "label_normalized": "additional drug 1",
      "type": "C",
      "length": "200",
      "core": "Supp",
      "role": "",
      "format": "",
      "codelist_code": "",
      "seq": "65",
      "origin": "CRF",
      "dataset_level": "Corporate",
      "is_supplemental": true,
      "base_domain": "AE"
    },
    {
      "dataset": "AE",
      "variable": "AEACN1",
      "label": "Action Taken, Investigational Product 1",
      "label_normalized": "action taken, investigational product 1",
      "type": "C",
      "length": "200",
      "core": "Supp",
      "role": "",
      "format": "(ACN)",
      "codelist_code": "",
      "seq": "66",
      "origin": "CRF",
      "dataset_level": "Corporate",
      "is_supplemental": true,
      "base_domain": "AE"
    },
    {
      "dataset": "AE",
      "variable": "AEACNAD",
      "label": "Action Taken, Additional Drug",
      "label_normalized": "action taken, additional drug",
      "type": "C",
      "length": "200",
      "core": "Supp",
      "role": "",
      "format": "(ACN)",
      "codelist_code": "",
      "seq": "67",
      "origin": "CRF",
      "dataset_level": "Corporate",
      "is_supplemental": true,
      "base_domain": "AE"
    },
    {
      "dataset": "AE",
      "variable": "AEACNAD1",
      "label": "Action Taken, Additional Drug 1",
      "label_normalized": "action taken, additional drug 1",
      "type": "C",
      "length": "200",
      "core": "Supp",
      "role": "",
      "format": "(ACN)",
      "codelist_code": "",
      "seq": "68",
      "origin": "CRF",
      "dataset_level": "Corporate",
      "is_supplemental": true,
      "base_domain": "AE"
    },
    {
      "dataset": "AE",
      "variable": "AECAAD",
      "label": "Causality to Additional Drug",
      "label_normalized": "causality to additional drug",
      "type": "C",
      "length": "200",
      "core": "Supp",
      "role": "",
      "format": "(AECAAD)",
      "codelist_code": "",
      "seq": "69",
      "origin": "CRF",
      "dataset_level": "Corporate",
      "is_supplemental": true,
      "base_domain": "AE"
    },
    {
      "dataset": "AE",
      "variable": "AECAAD1",
      "label": "Causality to Additional Drug 1",
      "label_normalized": "causality to additional drug 1",
      "type": "C",
      "length": "200",
      "core": "Supp",
      "role": "",
      "format": "(AECAAD1)",
      "codelist_code": "",
      "seq": "70",
      "origin": "CRF",
      "dataset_level": "Corporate",
      "is_supplemental": true,
      "base_domain": "AE"
    },
    {
      "dataset": "AE",
      "variable": "AEDESC",
      "label": "AE Description",
      "label_normalized": "ae description",
      "type": "C",
      "length": "200",
      "core": "Supp",
      "role": "",
      "format": "",
      "codelist_code": "",
      "seq": "71",
      "origin": "CRF",
      "dataset_level": "Corporate",
      "is_supplemental": true,
      "base_domain": "AE"
    },
    {
      "dataset": "AE",
      "variable": "AEDESC1",
      "label": "AE Description",
      "label_normalized": "ae description",
      "type": "C",
      "length": "200",
      "core": "Supp",
      "role": "",
      "format": "",
      "codelist_code": "",
      "seq": "72",
      "origin": "CRF",
      "dataset_level": "Corporate",
      "is_supplemental": true,
      "base_domain": "AE"
    },
    {
      "dataset": "AE",
      "variable": "AEDESC2",
      "label": "AE Description",
      "label_normalized": "ae description",
      "type": "C",
      "length": "200",
      "core": "Supp",
      "role": "",
      "format": "",
      "codelist_code": "",
      "seq": "73",
      "origin": "CRF",
      "dataset_level": "Corporate",
      "is_supplemental": true,
      "base_domain": "AE"
    },
    {
      "dataset": "AE",
      "variable": "AEDESC3",
      "label": "AE Description",
      "label_normalized": "ae description",
      "type": "C",
      "length": "200",
      "core": "Supp",
      "role": "",
      "format": "",
      "codelist_code": "",
      "seq": "74",
      "origin": "CRF",
      "dataset_level": "Corporate",
      "is_supplemental": true,
      "base_domain": "AE"
    },
    {
      "dataset": "AE",
      "variable": "AEDESC4",
      "label": "AE Description",
      "label_normalized": "ae description",
      "type": "C",
      "length": "200",
      "core": "Supp",
      "role": "",
      "format": "",
      "codelist_code": "",
      "seq": "75",
      "origin": "CRF",
      "dataset_level": "Corporate",
      "is_supplemental": true,
      "base_domain": "AE"
    },
    {
      "dataset": "AE",
      "variable": "AEDESC5",
      "label": "AE Description",
      "label_normalized": "ae description",
      "type": "C",
      "length": "200",
      "core": "Supp",
      "role": "",
      "format": "",
      "codelist_code": "",
      "seq": "76",
      "origin": "CRF",
      "dataset_level": "Corporate",
      "is_supplemental": true,
      "base_domain": "AE"
    },
    {
      "dataset": "AE",
      "variable": "AEDESC6",
      "label": "AE Description",
      "label_normalized": "ae description",
      "type": "C",
      "length": "200",
      "core": "Supp",
      "role": "",
      "format": "",
      "codelist_code": "",
      "seq": "77",
      "origin": "CRF",
      "dataset_level": "Corporate",
      "is_supplemental": true,
      "base_domain": "AE"
    },
    {
      "dataset": "AE",
      "variable": "AEDESC7",
      "label": "AE Description",
      "label_normalized": "ae description",
      "type": "C",
      "length": "200",
      "core": "Supp",
      "role": "",
      "format": "",
      "codelist_code": "",
      "seq": "78",
      "origin": "CRF",
      "dataset_level": "Corporate",
      "is_supplemental": true,
      "base_domain": "AE"
    },
    {
      "dataset": "AE",
      "variable": "AEDESC8",
      "label": "AE Description",
      "label_normalized": "ae description",
      "type": "C",
      "length": "200",
      "core": "Supp",
      "role": "",
      "format": "",
      "codelist_code": "",
      "seq": "79",
      "origin": "CRF",
      "dataset_level": "Corporate",
      "is_supplemental": true,
      "base_domain": "AE"
    },
    {
      "dataset": "AE",
      "variable": "AEDESC9",
      "label": "AE Description",
      "label_normalized": "ae description",
      "type": "C",
      "length": "200",
      "core": "Supp",
      "role": "",
      "format": "",
      "codelist_code": "",
      "seq": "80",
      "origin": "CRF",
      "dataset_level": "Corporate",
      "is_supplemental": true,
      "base_domain": "AE"
    },
    {
      "dataset": "AE",
      "variable": "AEDLT",
      "label": "Dose Limiting Toxicity",
      "label_normalized": "dose limiting toxicity",
      "type": "C",
      "length": "2",
      "core": "Supp",
      "role": "",
      "format": "",
      "codelist_code": "",
      "seq": "81",
      "origin": "CRF",
      "dataset_level": "Corporate",
      "is_supplemental": true,
      "base_domain": "AE"
    },
    {
      "dataset": "AE",
      "variable": "AEDREL",
      "label": "Reasonable Possibility AE Caus by Device",
      "label_normalized": "reasonable possibility ae caus by device",
      "type": "C",
      "length": "2",
      "core": "Supp",
      "role": "",
      "format": "",
      "codelist_code": "",
      "seq": "82",
      "origin": "CRF",
      "dataset_level": "Corporate",
      "is_supplemental": true,
      "base_domain": "AE"
    },
    {
      "dataset": "AE",
      "variable": "AEDSRESL",
      "label": "AE Related to Disease Under Study",
      "label_normalized": "ae related to disease under study",
      "type": "C",
      "length": "2",
      "core": "Supp",
      "role": "",
      "format": "(NY)",
      "codelist_code": "",
      "seq": "83",
      "origin": "CRF",
      "dataset_level": "Corporate",
      "is_supplemental": true,
      "base_domain": "AE"
    },
    {
      "dataset": "AE",
      "variable": "AEEVADJ",
      "label": "Event to be Adjudicated",
      "label_normalized": "event to be adjudicated",
      "type": "C",
      "length": "1",
      "core": "Supp",
      "role": "",
      "format": "(NY)",
      "codelist_code": "",
      "seq": "84",
      "origin": "CRF",
      "dataset_level": "Corporate",
      "is_supplemental": true,
      "base_domain": "AE"
    },
    {
      "dataset": "AE",
      "variable": "AEITOXGR",
      "label": "Maximum IWCLL Grade",
      "label_normalized": "maximum iwcll grade",
      "type": "C",
      "length": "2",
      "core": "Supp",
      "role": "",
      "format": "",
      "codelist_code": "",
      "seq": "85",
      "origin": "CRF",
      "dataset_level": "Corporate",
      "is_supplemental": true,
      "base_domain": "AE"
    },
    {
      "dataset": "AE",
      "variable": "AEMAAE",
      "label": "AE Medically Attended",
      "label_normalized": "ae medically attended",
      "type": "C",
      "length": "2",
      "core": "Supp",
      "role": "",
      "format": "(NY)",
      "codelist_code": "",
      "seq": "86",
      "origin": "CRF",
      "dataset_level": "Corporate",
      "is_supplemental": true,
      "base_domain": "AE"
    },
    {
      "dataset": "AE",
      "variable": "AEONSDIP",
      "label": "AE Onset Status on Day of IP Admin",
      "label_normalized": "ae onset status on day of ip admin",
      "type": "C",
      "length": "40",
      "core": "Supp",
      "role": "",
      "format": "",
      "codelist_code": "",
      "seq": "87",
      "origin": "CRF",
      "dataset_level": "Corporate",
      "is_supplemental": true,
      "base_domain": "AE"
    },
    {
      "dataset": "AE",
      "variable": "AEPROSSP",
      "label": "Provoked by Specific Study Procedure",
      "label_normalized": "provoked by specific study procedure",
      "type": "C",
      "length": "1",
      "core": "Supp",
      "role": "",
      "format": "(NY)",
      "codelist_code": "",
      "seq": "88",
      "origin": "CRF",
      "dataset_level": "Corporate",
      "is_supplemental": true,
      "base_domain": "AE"
    },
    {
      "dataset": "AE",
      "variable": "AEPRR",
      "label": "AE Required Procedure",
      "label_normalized": "ae required procedure",
      "type": "C",
      "length": "2",
      "core": "Supp",
      "role": "",
      "format": "",
      "codelist_code": "",
      "seq": "89",
      "origin": "CRF",
      "dataset_level": "Corporate",
      "is_supplemental": true,
      "base_domain": "AE"
    },
    {
      "dataset": "AE",
      "variable": "AEREL1",
      "label": "Causality to IP 1",
      "label_normalized": "causality to ip 1",
      "type": "C",
      "length": "200",
      "core": "Supp",
      "role": "",
      "format": "(AEREL1)",
      "codelist_code": "",
      "seq": "90",
      "origin": "CRF",
      "dataset_level": "Corporate",
      "is_supplemental": true,
      "base_domain": "AE"
    },
    {
      "dataset": "AE",
      "variable": "AESIDC01",
      "label": "AESI Description 01",
      "label_normalized": "aesi description 01",
      "type": "C",
      "length": "200",
      "core": "Supp",
      "role": "",
      "format": "",
      "codelist_code": "",
      "seq": "91",
      "origin": "CRF",
      "dataset_level": "Corporate",
      "is_supplemental": true,
      "base_domain": "AE"
    },
    {
      "dataset": "AE",
      "variable": "AESIDC02",
      "label": "AESI Description 02",
      "label_normalized": "aesi description 02",
      "type": "C",
      "length": "200",
      "core": "Supp",
      "role": "",
      "format": "",
      "codelist_code": "",
      "seq": "92",
      "origin": "CRF",
      "dataset_level": "Corporate",
      "is_supplemental": true,
      "base_domain": "AE"
    },
    {
      "dataset": "AE",
      "variable": "AESIDC03",
      "label": "AESI Description 03",
      "label_normalized": "aesi description 03",
      "type": "C",
      "length": "200",
      "core": "Supp",
      "role": "",
      "format": "",
      "codelist_code": "",
      "seq": "93",
      "origin": "CRF",
      "dataset_level": "Corporate",
      "is_supplemental": true,
      "base_domain": "AE"
    },
    {
      "dataset": "AE",
      "variable": "AESIDC04",
      "label": "AESI Description 04",
      "label_normalized": "aesi description 04",
      "type": "C",
      "length": "200",
      "core": "Supp",
      "role": "",
      "format": "",
      "codelist_code": "",
      "seq": "94",
      "origin": "CRF",
      "dataset_level": "Corporate",
      "is_supplemental": true,
      "base_domain": "AE"
    },
    {
      "dataset": "AE",
      "variable": "AESIDC05",
      "label": "AESI Description 05",
      "label_normalized": "aesi description 05",
      "type": "C",
      "length": "200",
      "core": "Supp",
      "role": "",
      "format": "",
      "codelist_code": "",
      "seq": "95",
      "origin": "CRF",
      "dataset_level": "Corporate",
      "is_supplemental": true,
      "base_domain": "AE"
    },
    {
      "dataset": "AE",
      "variable": "AESIDC06",
      "label": "AESI Description 06",
      "label_normalized": "aesi description 06",
      "type": "C",
      "length": "200",
      "core": "Supp",
      "role": "",
      "format": "",
      "codelist_code": "",
      "seq": "96",
      "origin": "CRF",
      "dataset_level": "Corporate",
      "is_supplemental": true,
      "base_domain": "AE"
    },
    {
      "dataset": "AE",
      "variable": "AESIDC07",
      "label": "AESI Description 07",
      "label_normalized": "aesi description 07",
      "type": "C",
      "length": "200",
      "core": "Supp",
      "role": "",
      "format": "",
      "codelist_code": "",
      "seq": "97",
      "origin": "CRF",
      "dataset_level": "Corporate",
      "is_supplemental": true,
      "base_domain": "AE"
    },
    {
      "dataset": "AE",
      "variable": "AESIDC08",
      "label": "AESI Description 08",
      "label_normalized": "aesi description 08",
      "type": "C",
      "length": "200",
      "core": "Supp",
      "role": "",
      "format": "",
      "codelist_code": "",
      "seq": "98",
      "origin": "CRF",
      "dataset_level": "Corporate",
      "is_supplemental": true,
      "base_domain": "AE"
    },
    {
      "dataset": "AE",
      "variable": "AESIDC09",
      "label": "AESI Description 09",
      "label_normalized": "aesi description 09",
      "type": "C",
      "length": "200",
      "core": "Supp",
      "role": "",
      "format": "",
      "codelist_code": "",
      "seq": "99",
      "origin": "CRF",
      "dataset_level": "Corporate",
      "is_supplemental": true,
      "base_domain": "AE"
    },
    {
      "dataset": "AE",
      "variable": "AESIDC10",
      "label": "AESI Description 10",
      "label_normalized": "aesi description 10",
      "type": "C",
      "length": "200",
      "core": "Supp",
      "role": "",
      "format": "",
      "codelist_code": "",
      "seq": "100",
      "origin": "CRF",
      "dataset_level": "Corporate",
      "is_supplemental": true,
      "base_domain": "AE"
    },
    {
      "dataset": "AE",
      "variable": "AETRTEM",
      "label": "Treatment Emergent Flag",
      "label_normalized": "treatment emergent flag",
      "type": "C",
      "length": "2",
      "core": "Supp",
      "role": "",
      "format": "(NY)",
      "codelist_code": "",
      "seq": "101",
      "origin": "CRF",
      "dataset_level": "Corporate",
      "is_supplemental": true,
      "base_domain": "AE"
    },
    {
      "dataset": "AE",
      "variable": "AEWD",
      "label": "AE Caused Subject to Withdraw from Study",
      "label_normalized": "ae caused subject to withdraw from study",
      "type": "C",
      "length": "1",
      "core": "Supp",
      "role": "",
      "format": "(NY)",
      "codelist_code": "",
      "seq": "102",
      "origin": "CRF",
      "dataset_level": "Corporate",
      "is_supplemental": true,
      "base_domain": "AE"
    },
    {
      "dataset": "AE",
      "variable": "CTC",
      "label": "CTC Version",
      "label_normalized": "ctc version",
      "type": "C",
      "length": "20",
      "core": "Supp",
      "role": "",
      "format": "",
      "codelist_code": "",
      "seq": "103",
      "origin": "CRF",
      "dataset_level": "Corporate",
      "is_supplemental": true,
      "base_domain": "AE"
    },
    {
      "dataset": "AE",
      "variable": "DENO",
      "label": "Device Event Number",
      "label_normalized": "device event number",
      "type": "C",
      "length": "8",
      "core": "Supp",
      "role": "",
      "format": "",
      "codelist_code": "",
      "seq": "104",
      "origin": "CRF",
      "dataset_level": "Corporate",
      "is_supplemental": true,
      "base_domain": "AE"
    },
    {
      "dataset": "AE",
      "variable": "IP",
      "label": "Investigational Product",
      "label_normalized": "investigational product",
      "type": "C",
      "length": "200",
      "core": "Supp",
      "role": "",
      "format": "",
      "codelist_code": "",
      "seq": "105",
      "origin": "CRF",
      "dataset_level": "Corporate",
      "is_supplemental": true,
      "base_domain": "AE"
    },
    {
      "dataset": "AE",
      "variable": "IP1",
      "label": "Investigational Product 1",
      "label_normalized": "investigational product 1",
      "type": "C",
      "length": "200",
      "core": "Supp",
      "role": "",
      "format": "",
      "codelist_code": "",
      "seq": "106",
      "origin": "CRF",
      "dataset_level": "Corporate",
      "is_supplemental": true,
      "base_domain": "AE"
    },
    {
      "dataset": "AE",
      "variable": "MEDDRAV",
      "label": "MedDRA Version",
      "label_normalized": "meddra version",
      "type": "C",
      "length": "20",
      "core": "Supp",
      "role": "",
      "format": "",
      "codelist_code": "",
      "seq": "107",
      "origin": "Assigned",
      "dataset_level": "Corporate",
      "is_supplemental": true,
      "base_domain": "AE"
    },
    {
      "dataset": "AE",
      "variable": "MODULE",
      "label": "Source Module Short Name",
      "label_normalized": "source module short name",
      "type": "C",
      "length": "40",
      "core": "Supp",
      "role": "",
      "format": "(MODULE)",
      "codelist_code": "",
      "seq": "108",
      "origin": "CRF",
      "dataset_level": "Corporate",
      "is_supplemental": true,
      "base_domain": "AE"
    },
    {
      "dataset": "AE",
      "variable": "SAECAA",
      "label": "SAE Caused by Additional Drug",
      "label_normalized": "sae caused by additional drug",
      "type": "C",
      "length": "1",
      "core": "Supp",
      "role": "",
      "format": "(NY)",
      "codelist_code": "",
      "seq": "109",
      "origin": "CRF",
      "dataset_level": "Corporate",
      "is_supplemental": true,
      "base_domain": "AE"
    },
    {
      "dataset": "AE",
      "variable": "SAECAA1",
      "label": "SAE Caused by Additional Drug 1",
      "label_normalized": "sae caused by additional drug 1",
      "type": "C",
      "length": "1",
      "core": "Supp",
      "role": "",
      "format": "(NY)",
      "codelist_code": "",
      "seq": "110",
      "origin": "CRF",
      "dataset_level": "Corporate",
      "is_supplemental": true,
      "base_domain": "AE"
    },
    {
      "dataset": "AE",
      "variable": "SAECAU1",
      "label": "SAE Caused by Investigational Product 1",
      "label_normalized": "sae caused by investigational product 1",
      "type": "C",
      "length": "1",
      "core": "Supp",
      "role": "",
      "format": "(NY)",
      "codelist_code": "",
      "seq": "111",
      "origin": "CRF",
      "dataset_level": "Corporate",
      "is_supplemental": true,
      "base_domain": "AE"
    },
    {
      "dataset": "AE",
      "variable": "SAECAUSP",
      "label": "SAE Caused by Study Procedure(s)",
      "label_normalized": "sae caused by study procedure(s)",
      "type": "C",
      "length": "1",
      "core": "Supp",
      "role": "",
      "format": "(NY)",
      "codelist_code": "",
      "seq": "112",
      "origin": "CRF",
      "dataset_level": "Corporate",
      "is_supplemental": true,
      "base_domain": "AE"
    },
    {
      "dataset": "AE",
      "variable": "SAEDDTC",
      "label": "Date/Time of Death",
      "label_normalized": "date/time of death",
      "type": "C",
      "length": "19",
      "core": "Supp",
      "role": "",
      "format": "ISO 8601",
      "codelist_code": "",
      "seq": "113",
      "origin": "CRF",
      "dataset_level": "Corporate",
      "is_supplemental": true,
      "base_domain": "AE"
    },
    {
      "dataset": "AE",
      "variable": "SAEDIA01",
      "label": "Diagnostic Investigations 01",
      "label_normalized": "diagnostic investigations 01",
      "type": "C",
      "length": "200",
      "core": "Supp",
      "role": "",
      "format": "",
      "codelist_code": "",
      "seq": "114",
      "origin": "CRF",
      "dataset_level": "Corporate",
      "is_supplemental": true,
      "base_domain": "AE"
    },
    {
      "dataset": "AE",
      "variable": "SAEDIA02",
      "label": "Diagnostic Investigations 02",
      "label_normalized": "diagnostic investigations 02",
      "type": "C",
      "length": "200",
      "core": "Supp",
      "role": "",
      "format": "",
      "codelist_code": "",
      "seq": "115",
      "origin": "CRF",
      "dataset_level": "Corporate",
      "is_supplemental": true,
      "base_domain": "AE"
    },
    {
      "dataset": "AE",
      "variable": "SAEDIA03",
      "label": "Diagnostic Investigations 03",
      "label_normalized": "diagnostic investigations 03",
      "type": "C",
      "length": "200",
      "core": "Supp",
      "role": "",
      "format": "",
      "codelist_code": "",
      "seq": "116",
      "origin": "CRF",
      "dataset_level": "Corporate",
      "is_supplemental": true,
      "base_domain": "AE"
    },
    {
      "dataset": "AE",
      "variable": "SAEDIA04",
      "label": "Diagnostic Investigations 04",
      "label_normalized": "diagnostic investigations 04",
      "type": "C",
      "length": "200",
      "core": "Supp",
      "role": "",
      "format": "",
      "codelist_code": "",
      "seq": "117",
      "origin": "CRF",
      "dataset_level": "Corporate",
      "is_supplemental": true,
      "base_domain": "AE"
    },
    {
      "dataset": "AE",
      "variable": "SAEDIA05",
      "label": "Diagnostic Investigations 05",
      "label_normalized": "diagnostic investigations 05",
      "type": "C",
      "length": "200",
      "core": "Supp",
      "role": "",
      "format": "",
      "codelist_code": "",
      "seq": "118",
      "origin": "CRF",
      "dataset_level": "Corporate",
      "is_supplemental": true,
      "base_domain": "AE"
    },
    {
      "dataset": "AE",
      "variable": "SAEDIA06",
      "label": "Diagnostic Investigations 06",
      "label_normalized": "diagnostic investigations 06",
      "type": "C",
      "length": "200",
      "core": "Supp",
      "role": "",
      "format": "",
      "codelist_code": "",
      "seq": "119",
      "origin": "CRF",
      "dataset_level": "Corporate",
      "is_supplemental": true,
      "base_domain": "AE"
    },
    {
      "dataset": "AE",
      "variable": "SAEDIA07",
      "label": "Diagnostic Investigations 07",
      "label_normalized": "diagnostic investigations 07",
      "type": "C",
      "length": "200",
      "core": "Supp",
      "role": "",
      "format": "",
      "codelist_code": "",
      "seq": "120",
      "origin": "CRF",
      "dataset_level": "Corporate",
      "is_supplemental": true,
      "base_domain": "AE"
    },
    {
      "dataset": "AE",
      "variable": "SAEDIA08",
      "label": "Diagnostic Investigations 08",
      "label_normalized": "diagnostic investigations 08",
      "type": "C",
      "length": "200",
      "core": "Supp",
      "role": "",
      "format": "",
      "codelist_code": "",
      "seq": "121",
      "origin": "CRF",
      "dataset_level": "Corporate",
      "is_supplemental": true,
      "base_domain": "AE"
    },
    {
      "dataset": "AE",
      "variable": "SAEDIA09",
      "label": "Diagnostic Investigations 09",
      "label_normalized": "diagnostic investigations 09",
      "type": "C",
      "length": "200",
      "core": "Supp",
      "role": "",
      "format": "",
      "codelist_code": "",
      "seq": "122",
      "origin": "CRF",
      "dataset_level": "Corporate",
      "is_supplemental": true,
      "base_domain": "AE"
    },
    {
      "dataset": "AE",
      "variable": "SAEDIA10",
      "label": "Diagnostic Investigations 10",
      "label_normalized": "diagnostic investigations 10",
      "type": "C",
      "length": "200",
      "core": "Supp",
      "role": "",
      "format": "",
      "codelist_code": "",
      "seq": "123",
      "origin": "CRF",
      "dataset_level": "Corporate",
      "is_supplemental": true,
      "base_domain": "AE"
    },
    {
      "dataset": "AE",
      "variable": "SAEDIDTC",
      "label": "Date of Discharge",
      "label_normalized": "date of discharge",
      "type": "C",
      "length": "19",
      "core": "Supp",
      "role": "",
      "format": "ISO 8601",
      "codelist_code": "",
      "seq": "124",
      "origin": "CRF",
      "dataset_level": "Corporate",
      "is_supplemental": true,
      "base_domain": "AE"
    },
    {
      "dataset": "AE",
      "variable": "SAEDTC",
      "label": "Date/Time AE Met Criteria for Serious AE",
      "label_normalized": "date/time ae met criteria for serious ae",
      "type": "C",
      "length": "19",
      "core": "Supp",
      "role": "",
      "format": "ISO 8601",
      "codelist_code": "",
      "seq": "125",
      "origin": "CRF",
      "dataset_level": "Corporate",
      "is_supplemental": true,
      "base_domain": "AE"
    },
    {
      "dataset": "AE",
      "variable": "SAEHODTC",
      "label": "Date of Hospitalization",
      "label_normalized": "date of hospitalization",
      "type": "C",
      "length": "19",
      "core": "Supp",
      "role": "",
      "format": "ISO 8601",
      "codelist_code": "",
      "seq": "126",
      "origin": "CRF",
      "dataset_level": "Corporate",
      "is_supplemental": true,
      "base_domain": "AE"
    },
    {
      "dataset": "AE",
      "variable": "SAEIADTC",
      "label": "Date Investigator Aware of Serious AE",
      "label_normalized": "date investigator aware of serious ae",
      "type": "C",
      "length": "19",
      "core": "Supp",
      "role": "",
      "format": "ISO 8601",
      "codelist_code": "",
      "seq": "127",
      "origin": "CRF",
      "dataset_level": "Corporate",
      "is_supplemental": true,
      "base_domain": "AE"
    },
    {
      "dataset": "AE",
      "variable": "SAESP",
      "label": "Study Procedure(s)",
      "label_normalized": "study procedure(s)",
      "type": "C",
      "length": "200",
      "core": "Supp",
      "role": "",
      "format": "",
      "codelist_code": "",
      "seq": "128",
      "origin": "CRF",
      "dataset_level": "Corporate",
      "is_supplemental": true,
      "base_domain": "AE"
    },
    {
      "dataset": "AE",
      "variable": "SAESYM01",
      "label": "SAE Symptoms 01",
      "label_normalized": "sae symptoms 01",
      "type": "C",
      "length": "200",
      "core": "Supp",
      "role": "",
      "format": "",
      "codelist_code": "",
      "seq": "129",
      "origin": "CRF",
      "dataset_level": "Corporate",
      "is_supplemental": true,
      "base_domain": "AE"
    },
    {
      "dataset": "AE",
      "variable": "SAESYM02",
      "label": "SAE Symptoms 02",
      "label_normalized": "sae symptoms 02",
      "type": "C",
      "length": "200",
      "core": "Supp",
      "role": "",
      "format": "",
      "codelist_code": "",
      "seq": "130",
      "origin": "CRF",
      "dataset_level": "Corporate",
      "is_supplemental": true,
      "base_domain": "AE"
    },
    {
      "dataset": "AE",
      "variable": "SAESYM03",
      "label": "SAE Symptoms 03",
      "label_normalized": "sae symptoms 03",
      "type": "C",
      "length": "200",
      "core": "Supp",
      "role": "",
      "format": "",
      "codelist_code": "",
      "seq": "131",
      "origin": "CRF",
      "dataset_level": "Corporate",
      "is_supplemental": true,
      "base_domain": "AE"
    },
    {
      "dataset": "AE",
      "variable": "SAESYM04",
      "label": "SAE Symptoms 04",
      "label_normalized": "sae symptoms 04",
      "type": "C",
      "length": "200",
      "core": "Supp",
      "role": "",
      "format": "",
      "codelist_code": "",
      "seq": "132",
      "origin": "CRF",
      "dataset_level": "Corporate",
      "is_supplemental": true,
      "base_domain": "AE"
    },
    {
      "dataset": "AE",
      "variable": "SAESYM05",
      "label": "SAE Symptoms 05",
      "label_normalized": "sae symptoms 05",
      "type": "C",
      "length": "200",
      "core": "Supp",
      "role": "",
      "format": "",
      "codelist_code": "",
      "seq": "133",
      "origin": "CRF",
      "dataset_level": "Corporate",
      "is_supplemental": true,
      "base_domain": "AE"
    },
    {
      "dataset": "AE",
      "variable": "SAESYM06",
      "label": "SAE Symptoms 06",
      "label_normalized": "sae symptoms 06",
      "type": "C",
      "length": "200",
      "core": "Supp",
      "role": "",
      "format": "",
      "codelist_code": "",
      "seq": "134",
      "origin": "CRF",
      "dataset_level": "Corporate",
      "is_supplemental": true,
      "base_domain": "AE"
    },
    {
      "dataset": "AE",
      "variable": "SAESYM07",
      "label": "SAE Symptoms 07",
      "label_normalized": "sae symptoms 07",
      "type": "C",
      "length": "200",
      "core": "Supp",
      "role": "",
      "format": "",
      "codelist_code": "",
      "seq": "135",
      "origin": "CRF",
      "dataset_level": "Corporate",
      "is_supplemental": true,
      "base_domain": "AE"
    },
    {
      "dataset": "AE",
      "variable": "SAESYM08",
      "label": "SAE Symptoms 08",
      "label_normalized": "sae symptoms 08",
      "type": "C",
      "length": "200",
      "core": "Supp",
      "role": "",
      "format": "",
      "codelist_code": "",
      "seq": "136",
      "origin": "CRF",
      "dataset_level": "Corporate",
      "is_supplemental": true,
      "base_domain": "AE"
    },
    {
      "dataset": "AE",
      "variable": "SAESYM09",
      "label": "SAE Symptoms 09",
      "label_normalized": "sae symptoms 09",
      "type": "C",
      "length": "200",
      "core": "Supp",
      "role": "",
      "format": "",
      "codelist_code": "",
      "seq": "137",
      "origin": "CRF",
      "dataset_level": "Corporate",
      "is_supplemental": true,
      "base_domain": "AE"
    },
    {
      "dataset": "AE",
      "variable": "SAESYM10",
      "label": "SAE Symptoms 10",
      "label_normalized": "sae symptoms 10",
      "type": "C",
      "length": "200",
      "core": "Supp",
      "role": "",
      "format": "",
      "codelist_code": "",
      "seq": "138",
      "origin": "CRF",
      "dataset_level": "Corporate",
      "is_supplemental": true,
      "base_domain": "AE"
    },
    {
      "dataset": "AE",
      "variable": "SAETRT01",
      "label": "Treatments of SAE 01",
      "label_normalized": "treatments of sae 01",
      "type": "C",
      "length": "200",
      "core": "Supp",
      "role": "",
      "format": "",
      "codelist_code": "",
      "seq": "139",
      "origin": "CRF",
      "dataset_level": "Corporate",
      "is_supplemental": true,
      "base_domain": "AE"
    },
    {
      "dataset": "AE",
      "variable": "SAETRT02",
      "label": "Treatments of SAE 02",
      "label_normalized": "treatments of sae 02",
      "type": "C",
      "length": "200",
      "core": "Supp",
      "role": "",
      "format": "",
      "codelist_code": "",
      "seq": "140",
      "origin": "CRF",
      "dataset_level": "Corporate",
      "is_supplemental": true,
      "base_domain": "AE"
    },
    {
      "dataset": "AE",
      "variable": "SAETRT03",
      "label": "Treatments of SAE 03",
      "label_normalized": "treatments of sae 03",
      "type": "C",
      "length": "200",
      "core": "Supp",
      "role": "",
      "format": "",
      "codelist_code": "",
      "seq": "141",
      "origin": "CRF",
      "dataset_level": "Corporate",
      "is_supplemental": true,
      "base_domain": "AE"
    },
    {
      "dataset": "AE",
      "variable": "SAETRT04",
      "label": "Treatments of SAE 04",
      "label_normalized": "treatments of sae 04",
      "type": "C",
      "length": "200",
      "core": "Supp",
      "role": "",
      "format": "",
      "codelist_code": "",
      "seq": "142",
      "origin": "CRF",
      "dataset_level": "Corporate",
      "is_supplemental": true,
      "base_domain": "AE"
    },
    {
      "dataset": "AE",
      "variable": "SAETRT05",
      "label": "Treatments of SAE 05",
      "label_normalized": "treatments of sae 05",
      "type": "C",
      "length": "200",
      "core": "Supp",
      "role": "",
      "format": "",
      "codelist_code": "",
      "seq": "143",
      "origin": "CRF",
      "dataset_level": "Corporate",
      "is_supplemental": true,
      "base_domain": "AE"
    },
    {
      "dataset": "AE",
      "variable": "SAETRT06",
      "label": "Treatments of SAE 06",
      "label_normalized": "treatments of sae 06",
      "type": "C",
      "length": "200",
      "core": "Supp",
      "role": "",
      "format": "",
      "codelist_code": "",
      "seq": "144",
      "origin": "CRF",
      "dataset_level": "Corporate",
      "is_supplemental": true,
      "base_domain": "AE"
    },
    {
      "dataset": "AE",
      "variable": "SAETRT07",
      "label": "Treatments of SAE 07",
      "label_normalized": "treatments of sae 07",
      "type": "C",
      "length": "200",
      "core": "Supp",
      "role": "",
      "format": "",
      "codelist_code": "",
      "seq": "145",
      "origin": "CRF",
      "dataset_level": "Corporate",
      "is_supplemental": true,
      "base_domain": "AE"
    },
    {
      "dataset": "AE",
      "variable": "SAETRT08",
      "label": "Treatments of SAE 08",
      "label_normalized": "treatments of sae 08",
      "type": "C",
      "length": "200",
      "core": "Supp",
      "role": "",
      "format": "",
      "codelist_code": "",
      "seq": "146",
      "origin": "CRF",
      "dataset_level": "Corporate",
      "is_supplemental": true,
      "base_domain": "AE"
    },
    {
      "dataset": "AE",
      "variable": "SAETRT09",
      "label": "Treatments of SAE 09",
      "label_normalized": "treatments of sae 09",
      "type": "C",
      "length": "200",
      "core": "Supp",
      "role": "",
      "format": "",
      "codelist_code": "",
      "seq": "147",
      "origin": "CRF",
      "dataset_level": "Corporate",
      "is_supplemental": true,
      "base_domain": "AE"
    },
    {
      "dataset": "AE",
      "variable": "SAETRT10",
      "label": "Treatments of SAE 10",
      "label_normalized": "treatments of sae 10",
      "type": "C",
      "length": "200",
      "core": "Supp",
      "role": "",
      "format": "",
      "codelist_code": "",
      "seq": "148",
      "origin": "CRF",
      "dataset_level": "Corporate",
      "is_supplemental": true,
      "base_domain": "AE"
    }
  ],
  "AG": [
    {
      "dataset": "AG",
      "variable": "STUDYID",
      "label": "Study Identifier",
      "label_normalized": "study identifier",
      "type": "C",
      "length": "21",
      "core": "Req",
      "role": "Identifier",
      "format": "",
      "codelist_code": "",
      "seq": "1",
      "origin": "Protocol",
      "dataset_level": "Respiratory and Immunology",
      "is_supplemental": false,
      "base_domain": "AG"
    },
    {
      "dataset": "AG",
      "variable": "DOMAIN",
      "label": "Domain Abbreviation",
      "label_normalized": "domain abbreviation",
      "type": "C",
      "length": "8",
      "core": "Req",
      "role": "Identifier",
      "format": "(DOMAIN)",
      "codelist_code": "",
      "seq": "2",
      "origin": "Assigned",
      "dataset_level": "Respiratory and Immunology",
      "is_supplemental": false,
      "base_domain": "AG"
    },
    {
      "dataset": "AG",
      "variable": "USUBJID",
      "label": "Unique Subject Identifier",
      "label_normalized": "unique subject identifier",
      "type": "C",
      "length": "30",
      "core": "Req",
      "role": "Identifier",
      "format": "",
      "codelist_code": "",
      "seq": "3",
      "origin": "Derived",
      "dataset_level": "Respiratory and Immunology",
      "is_supplemental": false,
      "base_domain": "AG"
    },
    {
      "dataset": "AG",
      "variable": "AGSEQ",
      "label": "Sequence Number",
      "label_normalized": "sequence number",
      "type": "N",
      "length": "8",
      "core": "Req",
      "role": "Identifier",
      "format": "",
      "codelist_code": "",
      "seq": "4",
      "origin": "Derived",
      "dataset_level": "Respiratory and Immunology",
      "is_supplemental": false,
      "base_domain": "AG"
    },
    {
      "dataset": "AG",
      "variable": "AGGRPID",
      "label": "Group ID",
      "label_normalized": "group id",
      "type": "C",
      "length": "40",
      "core": "Perm",
      "role": "Identifier",
      "format": "",
      "codelist_code": "",
      "seq": "5",
      "origin": "Derived",
      "dataset_level": "Respiratory and Immunology",
      "is_supplemental": false,
      "base_domain": "AG"
    },
    {
      "dataset": "AG",
      "variable": "AGREFID",
      "label": "Reference ID",
      "label_normalized": "reference id",
      "type": "C",
      "length": "40",
      "core": "Perm",
      "role": "Identifier",
      "format": "",
      "codelist_code": "",
      "seq": "6",
      "origin": "",
      "dataset_level": "Respiratory and Immunology",
      "is_supplemental": false,
      "base_domain": "AG"
    },
    {
      "dataset": "AG",
      "variable": "AGSPID",
      "label": "Sponsor-Defined Identifier",
      "label_normalized": "sponsor-defined identifier",
      "type": "C",
      "length": "40",
      "core": "Perm",
      "role": "Identifier",
      "format": "",
      "codelist_code": "",
      "seq": "7",
      "origin": "Derived",
      "dataset_level": "Respiratory and Immunology",
      "is_supplemental": false,
      "base_domain": "AG"
    },
    {
      "dataset": "AG",
      "variable": "AGLNKID",
      "label": "Link ID",
      "label_normalized": "link id",
      "type": "C",
      "length": "40",
      "core": "Perm",
      "role": "Identifier",
      "format": "",
      "codelist_code": "",
      "seq": "8",
      "origin": "Derived",
      "dataset_level": "Respiratory and Immunology",
      "is_supplemental": false,
      "base_domain": "AG"
    },
    {
      "dataset": "AG",
      "variable": "AGLNKGRP",
      "label": "Link Group ID",
      "label_normalized": "link group id",
      "type": "C",
      "length": "40",
      "core": "Perm",
      "role": "Identifier",
      "format": "",
      "codelist_code": "",
      "seq": "9",
      "origin": "Assigned",
      "dataset_level": "Respiratory and Immunology",
      "is_supplemental": false,
      "base_domain": "AG"
    },
    {
      "dataset": "AG",
      "variable": "AGTRT",
      "label": "Reported Agent Name",
      "label_normalized": "reported agent name",
      "type": "C",
      "length": "200",
      "core": "Req",
      "role": "Topic",
      "format": "",
      "codelist_code": "",
      "seq": "10",
      "origin": "Protocol",
      "dataset_level": "Respiratory and Immunology",
      "is_supplemental": false,
      "base_domain": "AG"
    },
    {
      "dataset": "AG",
      "variable": "AGMODIFY",
      "label": "Modified Reported Name",
      "label_normalized": "modified reported name",
      "type": "C",
      "length": "200",
      "core": "Perm",
      "role": "Synonym Qualifier",
      "format": "",
      "codelist_code": "",
      "seq": "11",
      "origin": "Assigned",
      "dataset_level": "Respiratory and Immunology",
      "is_supplemental": false,
      "base_domain": "AG"
    },
    {
      "dataset": "AG",
      "variable": "AGDECOD",
      "label": "Standardized Agent Name",
      "label_normalized": "standardized agent name",
      "type": "C",
      "length": "200",
      "core": "Perm",
      "role": "Synonym Qualifier",
      "format": "",
      "codelist_code": "",
      "seq": "12",
      "origin": "Assigned",
      "dataset_level": "Respiratory and Immunology",
      "is_supplemental": false,
      "base_domain": "AG"
    },
    {
      "dataset": "AG",
      "variable": "AGCAT",
      "label": "Category for Agent",
      "label_normalized": "category for agent",
      "type": "C",
      "length": "40",
      "core": "Perm",
      "role": "Grouping Qualifier",
      "format": "",
      "codelist_code": "",
      "seq": "13",
      "origin": "Assigned",
      "dataset_level": "Respiratory and Immunology",
      "is_supplemental": false,
      "base_domain": "AG"
    },
    {
      "dataset": "AG",
      "variable": "AGSCAT",
      "label": "Subcategory for Agent",
      "label_normalized": "subcategory for agent",
      "type": "C",
      "length": "40",
      "core": "Perm",
      "role": "Grouping Qualifier",
      "format": "",
      "codelist_code": "",
      "seq": "14",
      "origin": "Assigned",
      "dataset_level": "Respiratory and Immunology",
      "is_supplemental": false,
      "base_domain": "AG"
    },
    {
      "dataset": "AG",
      "variable": "AGPRESP",
      "label": "AG Pre-Specified",
      "label_normalized": "ag pre-specified",
      "type": "C",
      "length": "1",
      "core": "Perm",
      "role": "Variable Qualifier",
      "format": "(NY)",
      "codelist_code": "",
      "seq": "15",
      "origin": "Assigned",
      "dataset_level": "Respiratory and Immunology",
      "is_supplemental": false,
      "base_domain": "AG"
    },
    {
      "dataset": "AG",
      "variable": "AGOCCUR",
      "label": "AG Occurrence",
      "label_normalized": "ag occurrence",
      "type": "C",
      "length": "1",
      "core": "Perm",
      "role": "Record Qualifier",
      "format": "(NY)",
      "codelist_code": "",
      "seq": "16",
      "origin": "Assigned",
      "dataset_level": "Respiratory and Immunology",
      "is_supplemental": false,
      "base_domain": "AG"
    },
    {
      "dataset": "AG",
      "variable": "AGSTAT",
      "label": "Completion Status",
      "label_normalized": "completion status",
      "type": "C",
      "length": "8",
      "core": "Perm",
      "role": "Record Qualifier",
      "format": "(ND)",
      "codelist_code": "",
      "seq": "17",
      "origin": "Derived",
      "dataset_level": "Respiratory and Immunology",
      "is_supplemental": false,
      "base_domain": "AG"
    },
    {
      "dataset": "AG",
      "variable": "AGREASND",
      "label": "Reason Procedure Agent Not Collected",
      "label_normalized": "reason procedure agent not collected",
      "type": "C",
      "length": "200",
      "core": "Perm",
      "role": "Record Qualifier",
      "format": "",
      "codelist_code": "",
      "seq": "18",
      "origin": "CRF",
      "dataset_level": "Respiratory and Immunology",
      "is_supplemental": false,
      "base_domain": "AG"
    },
    {
      "dataset": "AG",
      "variable": "AGINDC",
      "label": "Indication",
      "label_normalized": "indication",
      "type": "C",
      "length": "40",
      "core": "Perm",
      "role": "Record Qualifier",
      "format": "",
      "codelist_code": "",
      "seq": "19",
      "origin": "CRF",
      "dataset_level": "Respiratory and Immunology",
      "is_supplemental": false,
      "base_domain": "AG"
    },
    {
      "dataset": "AG",
      "variable": "AGCLAS",
      "label": "Agent Class",
      "label_normalized": "agent class",
      "type": "C",
      "length": "40",
      "core": "Perm",
      "role": "Variable Qualifier",
      "format": "",
      "codelist_code": "",
      "seq": "20",
      "origin": "Assigned",
      "dataset_level": "Respiratory and Immunology",
      "is_supplemental": false,
      "base_domain": "AG"
    },
    {
      "dataset": "AG",
      "variable": "AGCLASCD",
      "label": "Agent Class Code",
      "label_normalized": "agent class code",
      "type": "C",
      "length": "8",
      "core": "Perm",
      "role": "Variable Qualifier",
      "format": "",
      "codelist_code": "",
      "seq": "21",
      "origin": "Assigned",
      "dataset_level": "Respiratory and Immunology",
      "is_supplemental": false,
      "base_domain": "AG"
    },
    {
      "dataset": "AG",
      "variable": "AGDOSE",
      "label": "Dose per Administration",
      "label_normalized": "dose per administration",
      "type": "N",
      "length": "8",
      "core": "Perm",
      "role": "Record Qualifier",
      "format": "",
      "codelist_code": "",
      "seq": "22",
      "origin": "CRF",
      "dataset_level": "Respiratory and Immunology",
      "is_supplemental": false,
      "base_domain": "AG"
    },
    {
      "dataset": "AG",
      "variable": "AGDOSTXT",
      "label": "Dose Description",
      "label_normalized": "dose description",
      "type": "C",
      "length": "40",
      "core": "Perm",
      "role": "Record Qualifier",
      "format": "",
      "codelist_code": "",
      "seq": "23",
      "origin": "",
      "dataset_level": "Respiratory and Immunology",
      "is_supplemental": false,
      "base_domain": "AG"
    },
    {
      "dataset": "AG",
      "variable": "AGDOSU",
      "label": "Dose Units",
      "label_normalized": "dose units",
      "type": "C",
      "length": "40",
      "core": "Perm",
      "role": "Variable Qualifier",
      "format": "(UNIT)",
      "codelist_code": "",
      "seq": "24",
      "origin": "CRF",
      "dataset_level": "Respiratory and Immunology",
      "is_supplemental": false,
      "base_domain": "AG"
    },
    {
      "dataset": "AG",
      "variable": "AGDOSFRM",
      "label": "Dose Form",
      "label_normalized": "dose form",
      "type": "C",
      "length": "40",
      "core": "Perm",
      "role": "Variable Qualifier",
      "format": "(FRM)",
      "codelist_code": "",
      "seq": "25",
      "origin": "",
      "dataset_level": "Respiratory and Immunology",
      "is_supplemental": false,
      "base_domain": "AG"
    },
    {
      "dataset": "AG",
      "variable": "AGDOSFRQ",
      "label": "Dosing Frequency per Interval",
      "label_normalized": "dosing frequency per interval",
      "type": "C",
      "length": "40",
      "core": "Perm",
      "role": "Record Qualifier",
      "format": "(FREQ)",
      "codelist_code": "",
      "seq": "26",
      "origin": "CRF",
      "dataset_level": "Respiratory and Immunology",
      "is_supplemental": false,
      "base_domain": "AG"
    },
    {
      "dataset": "AG",
      "variable": "AGDOSTOT",
      "label": "Total Daily Dose",
      "label_normalized": "total daily dose",
      "type": "N",
      "length": "8",
      "core": "Perm",
      "role": "Record Qualifier",
      "format": "",
      "codelist_code": "",
      "seq": "27",
      "origin": "CRF",
      "dataset_level": "Respiratory and Immunology",
      "is_supplemental": false,
      "base_domain": "AG"
    },
    {
      "dataset": "AG",
      "variable": "AGDOSRGM",
      "label": "Intended Dose Regimen",
      "label_normalized": "intended dose regimen",
      "type": "C",
      "length": "200",
      "core": "Perm",
      "role": "Record Qualifier",
      "format": "",
      "codelist_code": "",
      "seq": "28",
      "origin": "CRF",
      "dataset_level": "Respiratory and Immunology",
      "is_supplemental": false,
      "base_domain": "AG"
    },
    {
      "dataset": "AG",
      "variable": "AGROUTE",
      "label": "Route of Administration",
      "label_normalized": "route of administration",
      "type": "C",
      "length": "200",
      "core": "Perm",
      "role": "Record Qualifier",
      "format": "(ROUTE)",
      "codelist_code": "",
      "seq": "29",
      "origin": "CRF",
      "dataset_level": "Respiratory and Immunology",
      "is_supplemental": false,
      "base_domain": "AG"
    },
    {
      "dataset": "AG",
      "variable": "AGLOT",
      "label": "Lot Number",
      "label_normalized": "lot number",
      "type": "C",
      "length": "40",
      "core": "Perm",
      "role": "Record Qualifier",
      "format": "",
      "codelist_code": "",
      "seq": "30",
      "origin": "CRF",
      "dataset_level": "Respiratory and Immunology",
      "is_supplemental": false,
      "base_domain": "AG"
    },
    {
      "dataset": "AG",
      "variable": "AGLOC",
      "label": "Location of Administration",
      "label_normalized": "location of administration",
      "type": "C",
      "length": "40",
      "core": "Perm",
      "role": "Record Qualifier",
      "format": "(LOC)",
      "codelist_code": "",
      "seq": "31",
      "origin": "CRF",
      "dataset_level": "Respiratory and Immunology",
      "is_supplemental": false,
      "base_domain": "AG"
    },
    {
      "dataset": "AG",
      "variable": "AGLAT",
      "label": "Laterality",
      "label_normalized": "laterality",
      "type": "C",
      "length": "40",
      "core": "Perm",
      "role": "Variable Qualifier",
      "format": "(LAT)",
      "codelist_code": "",
      "seq": "32",
      "origin": "CRF",
      "dataset_level": "Respiratory and Immunology",
      "is_supplemental": false,
      "base_domain": "AG"
    },
    {
      "dataset": "AG",
      "variable": "AGDIR",
      "label": "Directionality",
      "label_normalized": "directionality",
      "type": "C",
      "length": "40",
      "core": "Perm",
      "role": "Variable Qualifier",
      "format": "(DIR)",
      "codelist_code": "",
      "seq": "33",
      "origin": "CRF",
      "dataset_level": "Respiratory and Immunology",
      "is_supplemental": false,
      "base_domain": "AG"
    },
    {
      "dataset": "AG",
      "variable": "AGFAST",
      "label": "Fasting Status",
      "label_normalized": "fasting status",
      "type": "C",
      "length": "2",
      "core": "Perm",
      "role": "Record Qualifier",
      "format": "(NY)",
      "codelist_code": "",
      "seq": "34",
      "origin": "CRF",
      "dataset_level": "Respiratory and Immunology",
      "is_supplemental": false,
      "base_domain": "AG"
    },
    {
      "dataset": "AG",
      "variable": "AGTRTV",
      "label": "Treatment Vehicle",
      "label_normalized": "treatment vehicle",
      "type": "C",
      "length": "40",
      "core": "Perm",
      "role": "Record Qualifier",
      "format": "",
      "codelist_code": "",
      "seq": "35",
      "origin": "CRF",
      "dataset_level": "Respiratory and Immunology",
      "is_supplemental": false,
      "base_domain": "AG"
    },
    {
      "dataset": "AG",
      "variable": "AGVAMT",
      "label": "Treatment Vehicle Amount",
      "label_normalized": "treatment vehicle amount",
      "type": "N",
      "length": "8",
      "core": "Perm",
      "role": "Record Qualifier",
      "format": "",
      "codelist_code": "",
      "seq": "36",
      "origin": "CRF",
      "dataset_level": "Respiratory and Immunology",
      "is_supplemental": false,
      "base_domain": "AG"
    },
    {
      "dataset": "AG",
      "variable": "AGVAMTU",
      "label": "Treatment Vehicle Amount Units",
      "label_normalized": "treatment vehicle amount units",
      "type": "C",
      "length": "40",
      "core": "Perm",
      "role": "Variable Qualifier",
      "format": "",
      "codelist_code": "",
      "seq": "37",
      "origin": "CRF",
      "dataset_level": "Respiratory and Immunology",
      "is_supplemental": false,
      "base_domain": "AG"
    },
    {
      "dataset": "AG",
      "variable": "AGADJ",
      "label": "Reason for Dose Adjustment",
      "label_normalized": "reason for dose adjustment",
      "type": "C",
      "length": "200",
      "core": "Perm",
      "role": "Record Qualifier",
      "format": "",
      "codelist_code": "",
      "seq": "38",
      "origin": "CRF",
      "dataset_level": "Respiratory and Immunology",
      "is_supplemental": false,
      "base_domain": "AG"
    },
    {
      "dataset": "AG",
      "variable": "VISITNUM",
      "label": "Visit Number",
      "label_normalized": "visit number",
      "type": "N",
      "length": "8",
      "core": "Exp",
      "role": "Timing",
      "format": "",
      "codelist_code": "",
      "seq": "39",
      "origin": "Derived",
      "dataset_level": "Respiratory and Immunology",
      "is_supplemental": false,
      "base_domain": "AG"
    },
    {
      "dataset": "AG",
      "variable": "VISIT",
      "label": "Visit Name",
      "label_normalized": "visit name",
      "type": "C",
      "length": "40",
      "core": "Perm",
      "role": "Timing",
      "format": "",
      "codelist_code": "",
      "seq": "40",
      "origin": "Protocol",
      "dataset_level": "Respiratory and Immunology",
      "is_supplemental": false,
      "base_domain": "AG"
    },
    {
      "dataset": "AG",
      "variable": "VISITDY",
      "label": "Planned Study Day of Visit",
      "label_normalized": "planned study day of visit",
      "type": "N",
      "length": "8",
      "core": "Perm",
      "role": "Timing",
      "format": "",
      "codelist_code": "",
      "seq": "41",
      "origin": "Assigned",
      "dataset_level": "Respiratory and Immunology",
      "is_supplemental": false,
      "base_domain": "AG"
    },
    {
      "dataset": "AG",
      "variable": "TAETORD",
      "label": "Planned Order of Element within Arm",
      "label_normalized": "planned order of element within arm",
      "type": "N",
      "length": "8",
      "core": "Perm",
      "role": "Timing",
      "format": "",
      "codelist_code": "",
      "seq": "42",
      "origin": "Protocol",
      "dataset_level": "Respiratory and Immunology",
      "is_supplemental": false,
      "base_domain": "AG"
    },
    {
      "dataset": "AG",
      "variable": "EPOCH",
      "label": "Epoch",
      "label_normalized": "epoch",
      "type": "C",
      "length": "40",
      "core": "Perm",
      "role": "Timing",
      "format": "(EPOCH)",
      "codelist_code": "",
      "seq": "43",
      "origin": "Protocol",
      "dataset_level": "Respiratory and Immunology",
      "is_supplemental": false,
      "base_domain": "AG"
    },
    {
      "dataset": "AG",
      "variable": "AGDTC",
      "label": "Date/Time of Collection",
      "label_normalized": "date/time of collection",
      "type": "C",
      "length": "19",
      "core": "Perm",
      "role": "Timing",
      "format": "ISO 8601",
      "codelist_code": "",
      "seq": "44",
      "origin": "CRF",
      "dataset_level": "Respiratory and Immunology",
      "is_supplemental": false,
      "base_domain": "AG"
    },
    {
      "dataset": "AG",
      "variable": "AGSTDTC",
      "label": "Start Date/Time of Agent",
      "label_normalized": "start date/time of agent",
      "type": "C",
      "length": "19",
      "core": "Perm",
      "role": "Timing",
      "format": "ISO 8601",
      "codelist_code": "",
      "seq": "45",
      "origin": "CRF",
      "dataset_level": "Respiratory and Immunology",
      "is_supplemental": false,
      "base_domain": "AG"
    },
    {
      "dataset": "AG",
      "variable": "AGENDTC",
      "label": "End Date/Time of Agent",
      "label_normalized": "end date/time of agent",
      "type": "C",
      "length": "19",
      "core": "Perm",
      "role": "Timing",
      "format": "ISO 8601",
      "codelist_code": "",
      "seq": "46",
      "origin": "CRF",
      "dataset_level": "Respiratory and Immunology",
      "is_supplemental": false,
      "base_domain": "AG"
    },
    {
      "dataset": "AG",
      "variable": "AGDY",
      "label": "Study Day of Collection",
      "label_normalized": "study day of collection",
      "type": "N",
      "length": "8",
      "core": "Perm",
      "role": "Timing",
      "format": "",
      "codelist_code": "",
      "seq": "47",
      "origin": "Derived",
      "dataset_level": "Respiratory and Immunology",
      "is_supplemental": false,
      "base_domain": "AG"
    },
    {
      "dataset": "AG",
      "variable": "AGSTDY",
      "label": "Study Day of Start of Agent",
      "label_normalized": "study day of start of agent",
      "type": "N",
      "length": "8",
      "core": "Perm",
      "role": "Timing",
      "format": "",
      "codelist_code": "",
      "seq": "48",
      "origin": "Derived",
      "dataset_level": "Respiratory and Immunology",
      "is_supplemental": false,
      "base_domain": "AG"
    },
    {
      "dataset": "AG",
      "variable": "AGENDY",
      "label": "Study Day of End of Agent",
      "label_normalized": "study day of end of agent",
      "type": "N",
      "length": "8",
      "core": "Perm",
      "role": "Timing",
      "format": "",
      "codelist_code": "",
      "seq": "49",
      "origin": "Derived",
      "dataset_level": "Respiratory and Immunology",
      "is_supplemental": false,
      "base_domain": "AG"
    },
    {
      "dataset": "AG",
      "variable": "AGDUR",
      "label": "Duration of Agent",
      "label_normalized": "duration of agent",
      "type": "C",
      "length": "40",
      "core": "Perm",
      "role": "Timing",
      "format": "ISO 8601",
      "codelist_code": "",
      "seq": "50",
      "origin": "CRF",
      "dataset_level": "Respiratory and Immunology",
      "is_supplemental": false,
      "base_domain": "AG"
    },
    {
      "dataset": "AG",
      "variable": "AGTPT",
      "label": "Planned Time Point Name",
      "label_normalized": "planned time point name",
      "type": "C",
      "length": "40",
      "core": "Perm",
      "role": "Timing",
      "format": "",
      "codelist_code": "",
      "seq": "51",
      "origin": "Assigned",
      "dataset_level": "Respiratory and Immunology",
      "is_supplemental": false,
      "base_domain": "AG"
    },
    {
      "dataset": "AG",
      "variable": "AGTPTNUM",
      "label": "Planned Time Point Number",
      "label_normalized": "planned time point number",
      "type": "N",
      "length": "8",
      "core": "Perm",
      "role": "Timing",
      "format": "",
      "codelist_code": "",
      "seq": "52",
      "origin": "Protocol",
      "dataset_level": "Respiratory and Immunology",
      "is_supplemental": false,
      "base_domain": "AG"
    },
    {
      "dataset": "AG",
      "variable": "AGELTM",
      "label": "Planned Elapsed Time from Time Point Ref",
      "label_normalized": "planned elapsed time from time point ref",
      "type": "C",
      "length": "40",
      "core": "Perm",
      "role": "Timing",
      "format": "ISO 8601",
      "codelist_code": "",
      "seq": "53",
      "origin": "Protocol",
      "dataset_level": "Respiratory and Immunology",
      "is_supplemental": false,
      "base_domain": "AG"
    },
    {
      "dataset": "AG",
      "variable": "AGTPTREF",
      "label": "Time Point Reference",
      "label_normalized": "time point reference",
      "type": "C",
      "length": "40",
      "core": "Perm",
      "role": "Timing",
      "format": "(AGTPTREF)",
      "codelist_code": "",
      "seq": "54",
      "origin": "Assigned",
      "dataset_level": "Respiratory and Immunology",
      "is_supplemental": false,
      "base_domain": "AG"
    },
    {
      "dataset": "AG",
      "variable": "AGSTRF",
      "label": "Start Relative to Reference Period",
      "label_normalized": "start relative to reference period",
      "type": "C",
      "length": "40",
      "core": "Perm",
      "role": "Timing",
      "format": "(STENRF)",
      "codelist_code": "",
      "seq": "55",
      "origin": "Assigned",
      "dataset_level": "Respiratory and Immunology",
      "is_supplemental": false,
      "base_domain": "AG"
    },
    {
      "dataset": "AG",
      "variable": "AGENRF",
      "label": "End Relative to Reference Period",
      "label_normalized": "end relative to reference period",
      "type": "C",
      "length": "40",
      "core": "Perm",
      "role": "Timing",
      "format": "(STENRF)",
      "codelist_code": "",
      "seq": "56",
      "origin": "Assigned",
      "dataset_level": "Respiratory and Immunology",
      "is_supplemental": false,
      "base_domain": "AG"
    },
    {
      "dataset": "AG",
      "variable": "AGEVLINT",
      "label": "Evaluation Interval",
      "label_normalized": "evaluation interval",
      "type": "C",
      "length": "40",
      "core": "Perm",
      "role": "Timing",
      "format": "ISO 8601",
      "codelist_code": "",
      "seq": "57",
      "origin": "",
      "dataset_level": "Respiratory and Immunology",
      "is_supplemental": false,
      "base_domain": "AG"
    },
    {
      "dataset": "AG",
      "variable": "AGSTRTPT",
      "label": "Start Relative to Reference Time Point",
      "label_normalized": "start relative to reference time point",
      "type": "C",
      "length": "40",
      "core": "Perm",
      "role": "Timing",
      "format": "(STENRF)",
      "codelist_code": "",
      "seq": "58",
      "origin": "Assigned",
      "dataset_level": "Respiratory and Immunology",
      "is_supplemental": false,
      "base_domain": "AG"
    },
    {
      "dataset": "AG",
      "variable": "AGSTTPT",
      "label": "Start Reference Time Point",
      "label_normalized": "start reference time point",
      "type": "C",
      "length": "40",
      "core": "Perm",
      "role": "Timing",
      "format": "",
      "codelist_code": "",
      "seq": "59",
      "origin": "Assigned",
      "dataset_level": "Respiratory and Immunology",
      "is_supplemental": false,
      "base_domain": "AG"
    },
    {
      "dataset": "AG",
      "variable": "AGENRTPT",
      "label": "End Relative to Reference Time Point",
      "label_normalized": "end relative to reference time point",
      "type": "C",
      "length": "40",
      "core": "Perm",
      "role": "Timing",
      "format": "(STENRF)",
      "codelist_code": "",
      "seq": "60",
      "origin": "Assigned",
      "dataset_level": "Respiratory and Immunology",
      "is_supplemental": false,
      "base_domain": "AG"
    },
    {
      "dataset": "AG",
      "variable": "AGENTPT",
      "label": "End Reference Time Point",
      "label_normalized": "end reference time point",
      "type": "C",
      "length": "40",
      "core": "Perm",
      "role": "Timing",
      "format": "",
      "codelist_code": "",
      "seq": "61",
      "origin": "Assigned",
      "dataset_level": "Respiratory and Immunology",
      "is_supplemental": false,
      "base_domain": "AG"
    },
    {
      "dataset": "AG",
      "variable": "MODULE",
      "label": "Source Module Short Name",
      "label_normalized": "source module short name",
      "type": "C",
      "length": "8",
      "core": "Supp",
      "role": "",
      "format": "(MODULE)",
      "codelist_code": "",
      "seq": "62",
      "origin": "CRF",
      "dataset_level": "Respiratory and Immunology",
      "is_supplemental": true,
      "base_domain": "AG"
    },
    {
      "dataset": "AG",
      "variable": "VISITDTC",
      "label": "Date of Visit",
      "label_normalized": "date of visit",
      "type": "C",
      "length": "19",
      "core": "Supp",
      "role": "",
      "format": "ISO 8601",
      "codelist_code": "",
      "seq": "63",
      "origin": "CRF",
      "dataset_level": "Respiratory and Immunology",
      "is_supplemental": true,
      "base_domain": "AG"
    },
    {
      "dataset": "AG",
      "variable": "AGCD",
      "label": "Medication Code",
      "label_normalized": "medication code",
      "type": "C",
      "length": "18",
      "core": "Supp",
      "role": "",
      "format": "",
      "codelist_code": "",
      "seq": "64",
      "origin": "",
      "dataset_level": "Respiratory and Immunology",
      "is_supplemental": true,
      "base_domain": "AG"
    },
    {
      "dataset": "AG",
      "variable": "AGDECOD2",
      "label": "Preferred Name 2",
      "label_normalized": "preferred name 2",
      "type": "C",
      "length": "200",
      "core": "Supp",
      "role": "",
      "format": "",
      "codelist_code": "",
      "seq": "65",
      "origin": "",
      "dataset_level": "Respiratory and Immunology",
      "is_supplemental": true,
      "base_domain": "AG"
    },
    {
      "dataset": "AG",
      "variable": "AGDECOD3",
      "label": "Preferred Name 3",
      "label_normalized": "preferred name 3",
      "type": "C",
      "length": "200",
      "core": "Supp",
      "role": "",
      "format": "",
      "codelist_code": "",
      "seq": "66",
      "origin": "",
      "dataset_level": "Respiratory and Immunology",
      "is_supplemental": true,
      "base_domain": "AG"
    },
    {
      "dataset": "AG",
      "variable": "AGDECOD4",
      "label": "Preferred Name 4",
      "label_normalized": "preferred name 4",
      "type": "C",
      "length": "200",
      "core": "Supp",
      "role": "",
      "format": "",
      "codelist_code": "",
      "seq": "67",
      "origin": "",
      "dataset_level": "Respiratory and Immunology",
      "is_supplemental": true,
      "base_domain": "AG"
    },
    {
      "dataset": "AG",
      "variable": "AGDECOD5",
      "label": "Preferred Name 5",
      "label_normalized": "preferred name 5",
      "type": "C",
      "length": "200",
      "core": "Supp",
      "role": "",
      "format": "",
      "codelist_code": "",
      "seq": "68",
      "origin": "",
      "dataset_level": "Respiratory and Immunology",
      "is_supplemental": true,
      "base_domain": "AG"
    },
    {
      "dataset": "AG",
      "variable": "AGDECOD6",
      "label": "Preferred Name 6",
      "label_normalized": "preferred name 6",
      "type": "C",
      "length": "200",
      "core": "Supp",
      "role": "",
      "format": "",
      "codelist_code": "",
      "seq": "69",
      "origin": "",
      "dataset_level": "Respiratory and Immunology",
      "is_supplemental": true,
      "base_domain": "AG"
    },
    {
      "dataset": "AG",
      "variable": "AGDECOD7",
      "label": "Preferred Name 7",
      "label_normalized": "preferred name 7",
      "type": "C",
      "length": "200",
      "core": "Supp",
      "role": "",
      "format": "",
      "codelist_code": "",
      "seq": "70",
      "origin": "",
      "dataset_level": "Respiratory and Immunology",
      "is_supplemental": true,
      "base_domain": "AG"
    },
    {
      "dataset": "AG",
      "variable": "AGDECOD8",
      "label": "Preferred Name 8",
      "label_normalized": "preferred name 8",
      "type": "C",
      "length": "200",
      "core": "Supp",
      "role": "",
      "format": "",
      "codelist_code": "",
      "seq": "71",
      "origin": "",
      "dataset_level": "Respiratory and Immunology",
      "is_supplemental": true,
      "base_domain": "AG"
    },
    {
      "dataset": "AG",
      "variable": "AGDTXT",
      "label": "Medication Dictionary Text",
      "label_normalized": "medication dictionary text",
      "type": "C",
      "length": "200",
      "core": "Supp",
      "role": "",
      "format": "",
      "codelist_code": "",
      "seq": "72",
      "origin": "",
      "dataset_level": "Respiratory and Immunology",
      "is_supplemental": true,
      "base_domain": "AG"
    },
    {
      "dataset": "AG",
      "variable": "AGDTXT2",
      "label": "Medication Dictionary Text 2",
      "label_normalized": "medication dictionary text 2",
      "type": "C",
      "length": "200",
      "core": "Supp",
      "role": "",
      "format": "",
      "codelist_code": "",
      "seq": "73",
      "origin": "",
      "dataset_level": "Respiratory and Immunology",
      "is_supplemental": true,
      "base_domain": "AG"
    },
    {
      "dataset": "AG",
      "variable": "AGDTXT3",
      "label": "Medication Dictionary Text 3",
      "label_normalized": "medication dictionary text 3",
      "type": "C",
      "length": "200",
      "core": "Supp",
      "role": "",
      "format": "",
      "codelist_code": "",
      "seq": "74",
      "origin": "",
      "dataset_level": "Respiratory and Immunology",
      "is_supplemental": true,
      "base_domain": "AG"
    },
    {
      "dataset": "AG",
      "variable": "AGDTXT4",
      "label": "Medication Dictionary Text 4",
      "label_normalized": "medication dictionary text 4",
      "type": "C",
      "length": "200",
      "core": "Supp",
      "role": "",
      "format": "",
      "codelist_code": "",
      "seq": "75",
      "origin": "",
      "dataset_level": "Respiratory and Immunology",
      "is_supplemental": true,
      "base_domain": "AG"
    },
    {
      "dataset": "AG",
      "variable": "AGDTXT5",
      "label": "Medication Dictionary Text 5",
      "label_normalized": "medication dictionary text 5",
      "type": "C",
      "length": "200",
      "core": "Supp",
      "role": "",
      "format": "",
      "codelist_code": "",
      "seq": "76",
      "origin": "",
      "dataset_level": "Respiratory and Immunology",
      "is_supplemental": true,
      "base_domain": "AG"
    },
    {
      "dataset": "AG",
      "variable": "AGDTXT6",
      "label": "Medication Dictionary Text 6",
      "label_normalized": "medication dictionary text 6",
      "type": "C",
      "length": "200",
      "core": "Supp",
      "role": "",
      "format": "",
      "codelist_code": "",
      "seq": "77",
      "origin": "",
      "dataset_level": "Respiratory and Immunology",
      "is_supplemental": true,
      "base_domain": "AG"
    },
    {
      "dataset": "AG",
      "variable": "AGDTXT7",
      "label": "Medication Dictionary Text 7",
      "label_normalized": "medication dictionary text 7",
      "type": "C",
      "length": "200",
      "core": "Supp",
      "role": "",
      "format": "",
      "codelist_code": "",
      "seq": "78",
      "origin": "",
      "dataset_level": "Respiratory and Immunology",
      "is_supplemental": true,
      "base_domain": "AG"
    },
    {
      "dataset": "AG",
      "variable": "AGDTXT8",
      "label": "Medication Dictionary Text 8",
      "label_normalized": "medication dictionary text 8",
      "type": "C",
      "length": "200",
      "core": "Supp",
      "role": "",
      "format": "",
      "codelist_code": "",
      "seq": "79",
      "origin": "",
      "dataset_level": "Respiratory and Immunology",
      "is_supplemental": true,
      "base_domain": "AG"
    },
    {
      "dataset": "AG",
      "variable": "AGGROUP",
      "label": "Pref. Grouping Term",
      "label_normalized": "pref. grouping term",
      "type": "C",
      "length": "200",
      "core": "Supp",
      "role": "",
      "format": "",
      "codelist_code": "",
      "seq": "80",
      "origin": "",
      "dataset_level": "Respiratory and Immunology",
      "is_supplemental": true,
      "base_domain": "AG"
    },
    {
      "dataset": "AG",
      "variable": "AGGROUP3",
      "label": "Pref. Group Term 3",
      "label_normalized": "pref. group term 3",
      "type": "C",
      "length": "200",
      "core": "Supp",
      "role": "",
      "format": "",
      "codelist_code": "",
      "seq": "81",
      "origin": "",
      "dataset_level": "Respiratory and Immunology",
      "is_supplemental": true,
      "base_domain": "AG"
    },
    {
      "dataset": "AG",
      "variable": "AGGROUP4",
      "label": "Pref. Group Term 4",
      "label_normalized": "pref. group term 4",
      "type": "C",
      "length": "200",
      "core": "Supp",
      "role": "",
      "format": "",
      "codelist_code": "",
      "seq": "82",
      "origin": "",
      "dataset_level": "Respiratory and Immunology",
      "is_supplemental": true,
      "base_domain": "AG"
    },
    {
      "dataset": "AG",
      "variable": "AGGROUP5",
      "label": "Pref. Group Term 5",
      "label_normalized": "pref. group term 5",
      "type": "C",
      "length": "200",
      "core": "Supp",
      "role": "",
      "format": "",
      "codelist_code": "",
      "seq": "83",
      "origin": "",
      "dataset_level": "Respiratory and Immunology",
      "is_supplemental": true,
      "base_domain": "AG"
    },
    {
      "dataset": "AG",
      "variable": "AGGROUP6",
      "label": "Pref. Group Term 6",
      "label_normalized": "pref. group term 6",
      "type": "C",
      "length": "200",
      "core": "Supp",
      "role": "",
      "format": "",
      "codelist_code": "",
      "seq": "84",
      "origin": "",
      "dataset_level": "Respiratory and Immunology",
      "is_supplemental": true,
      "base_domain": "AG"
    },
    {
      "dataset": "AG",
      "variable": "AGGROUP7",
      "label": "Pref. Group Term 7",
      "label_normalized": "pref. group term 7",
      "type": "C",
      "length": "200",
      "core": "Supp",
      "role": "",
      "format": "",
      "codelist_code": "",
      "seq": "85",
      "origin": "",
      "dataset_level": "Respiratory and Immunology",
      "is_supplemental": true,
      "base_domain": "AG"
    },
    {
      "dataset": "AG",
      "variable": "AGGROUP8",
      "label": "Pref. Group Term 8",
      "label_normalized": "pref. group term 8",
      "type": "C",
      "length": "200",
      "core": "Supp",
      "role": "",
      "format": "",
      "codelist_code": "",
      "seq": "86",
      "origin": "",
      "dataset_level": "Respiratory and Immunology",
      "is_supplemental": true,
      "base_domain": "AG"
    },
    {
      "dataset": "AG",
      "variable": "INGRED1",
      "label": "Active Ingredient 1",
      "label_normalized": "active ingredient 1",
      "type": "C",
      "length": "200",
      "core": "Supp",
      "role": "",
      "format": "",
      "codelist_code": "",
      "seq": "87",
      "origin": "",
      "dataset_level": "Respiratory and Immunology",
      "is_supplemental": true,
      "base_domain": "AG"
    },
    {
      "dataset": "AG",
      "variable": "INGRED2",
      "label": "Active Ingredient 2",
      "label_normalized": "active ingredient 2",
      "type": "C",
      "length": "200",
      "core": "Supp",
      "role": "",
      "format": "",
      "codelist_code": "",
      "seq": "88",
      "origin": "",
      "dataset_level": "Respiratory and Immunology",
      "is_supplemental": true,
      "base_domain": "AG"
    },
    {
      "dataset": "AG",
      "variable": "AGGROUP2",
      "label": "AGGROUP2",
      "label_normalized": "aggroup2",
      "type": "C",
      "length": "200",
      "core": "Supp",
      "role": "",
      "format": "",
      "codelist_code": "",
      "seq": "89",
      "origin": "",
      "dataset_level": "Respiratory and Immunology",
      "is_supplemental": true,
      "base_domain": "AG"
    },
    {
      "dataset": "AG",
      "variable": "WHODRGV",
      "label": "WHO Drug Dictionary Version",
      "label_normalized": "who drug dictionary version",
      "type": "C",
      "length": "19",
      "core": "Supp",
      "role": "",
      "format": "",
      "codelist_code": "",
      "seq": "90",
      "origin": "",
      "dataset_level": "Respiratory and Immunology",
      "is_supplemental": true,
      "base_domain": "AG"
    }
  ],
  "APMH": [
    {
      "dataset": "APMH",
      "variable": "STUDYID",
      "label": "Study Identifier",
      "label_normalized": "study identifier",
      "type": "C",
      "length": "21",
      "core": "Perm",
      "role": "Identifier",
      "format": "",
      "codelist_code": "",
      "seq": "1",
      "origin": "Protocol",
      "dataset_level": "Corporate",
      "is_supplemental": false,
      "base_domain": "APMH"
    },
    {
      "dataset": "APMH",
      "variable": "DOMAIN",
      "label": "Domain Abbreviation",
      "label_normalized": "domain abbreviation",
      "type": "C",
      "length": "8",
      "core": "Req",
      "role": "Identifier",
      "format": "(DOMAIN)",
      "codelist_code": "",
      "seq": "2",
      "origin": "Assigned",
      "dataset_level": "Corporate",
      "is_supplemental": false,
      "base_domain": "APMH"
    },
    {
      "dataset": "APMH",
      "variable": "APID",
      "label": "Associated Persons Identifier",
      "label_normalized": "associated persons identifier",
      "type": "C",
      "length": "30",
      "core": "Req",
      "role": "Identifier",
      "format": "",
      "codelist_code": "",
      "seq": "3",
      "origin": "CRF",
      "dataset_level": "Corporate",
      "is_supplemental": false,
      "base_domain": "APMH"
    },
    {
      "dataset": "APMH",
      "variable": "MHSEQ",
      "label": "Sequence Number",
      "label_normalized": "sequence number",
      "type": "N",
      "length": "8",
      "core": "Perm",
      "role": "Identifier",
      "format": "",
      "codelist_code": "",
      "seq": "4",
      "origin": "Derived",
      "dataset_level": "Corporate",
      "is_supplemental": false,
      "base_domain": "APMH"
    },
    {
      "dataset": "APMH",
      "variable": "MHTERM",
      "label": "Reported Term for the Medical History",
      "label_normalized": "reported term for the medical history",
      "type": "C",
      "length": "200",
      "core": "Perm",
      "role": "Topic",
      "format": "",
      "codelist_code": "",
      "seq": "5",
      "origin": "CRF",
      "dataset_level": "Corporate",
      "is_supplemental": false,
      "base_domain": "APMH"
    },
    {
      "dataset": "APMH",
      "variable": "MHPRESP",
      "label": "Medical History Event Pre-Specified",
      "label_normalized": "medical history event pre-specified",
      "type": "C",
      "length": "1",
      "core": "Perm",
      "role": "Record Qualifier",
      "format": "(NY)",
      "codelist_code": "",
      "seq": "6",
      "origin": "Assigned",
      "dataset_level": "Corporate",
      "is_supplemental": false,
      "base_domain": "APMH"
    },
    {
      "dataset": "APMH",
      "variable": "MHOCCUR",
      "label": "Medical History Occurrence",
      "label_normalized": "medical history occurrence",
      "type": "C",
      "length": "1",
      "core": "Perm",
      "role": "Record Qualifier",
      "format": "(NY)",
      "codelist_code": "",
      "seq": "7",
      "origin": "Assigned",
      "dataset_level": "Corporate",
      "is_supplemental": false,
      "base_domain": "APMH"
    },
    {
      "dataset": "APMH",
      "variable": "VISITNUM",
      "label": "Visit Number",
      "label_normalized": "visit number",
      "type": "N",
      "length": "8",
      "core": "Perm",
      "role": "Timing",
      "format": "",
      "codelist_code": "",
      "seq": "8",
      "origin": "Derived",
      "dataset_level": "Corporate",
      "is_supplemental": false,
      "base_domain": "APMH"
    },
    {
      "dataset": "APMH",
      "variable": "VISIT",
      "label": "Visit Name",
      "label_normalized": "visit name",
      "type": "C",
      "length": "40",
      "core": "Perm",
      "role": "Timing",
      "format": "",
      "codelist_code": "",
      "seq": "9",
      "origin": "Protocol",
      "dataset_level": "Corporate",
      "is_supplemental": false,
      "base_domain": "APMH"
    },
    {
      "dataset": "APMH",
      "variable": "VISITDY",
      "label": "Planned Study Day of Visit",
      "label_normalized": "planned study day of visit",
      "type": "N",
      "length": "8",
      "core": "Perm",
      "role": "Timing",
      "format": "",
      "codelist_code": "",
      "seq": "10",
      "origin": "Assigned",
      "dataset_level": "Corporate",
      "is_supplemental": false,
      "base_domain": "APMH"
    },
    {
      "dataset": "APMH",
      "variable": "RSUBJID",
      "label": "Related Subject",
      "label_normalized": "related subject",
      "type": "C",
      "length": "30",
      "core": "Perm",
      "role": "Record Qualifier",
      "format": "",
      "codelist_code": "",
      "seq": "11",
      "origin": "Derived",
      "dataset_level": "Corporate",
      "is_supplemental": false,
      "base_domain": "APMH"
    },
    {
      "dataset": "APMH",
      "variable": "SREL",
      "label": "Subject, Device, or Study Relationship",
      "label_normalized": "subject, device, or study relationship",
      "type": "C",
      "length": "200",
      "core": "Perm",
      "role": "Record Qualifier",
      "format": "",
      "codelist_code": "",
      "seq": "12",
      "origin": "CRF",
      "dataset_level": "Corporate",
      "is_supplemental": false,
      "base_domain": "APMH"
    }
  ],
  "APRELSUB": [
    {
      "dataset": "APRELSUB",
      "variable": "STUDYID",
      "label": "Study Identifier",
      "label_normalized": "study identifier",
      "type": "C",
      "length": "200",
      "core": "Req",
      "role": "Identifier",
      "format": "",
      "codelist_code": "",
      "seq": "1",
      "origin": "Protocol",
      "dataset_level": "Corporate",
      "is_supplemental": false,
      "base_domain": "APRELSUB"
    },
    {
      "dataset": "APRELSUB",
      "variable": "APID",
      "label": "Associated Persons Identifier",
      "label_normalized": "associated persons identifier",
      "type": "C",
      "length": "200",
      "core": "Perm",
      "role": "Identifier",
      "format": "",
      "codelist_code": "",
      "seq": "2",
      "origin": "CRF",
      "dataset_level": "Corporate",
      "is_supplemental": false,
      "base_domain": "APRELSUB"
    },
    {
      "dataset": "APRELSUB",
      "variable": "RSUBJID",
      "label": "Related Subject or Pool Identifier",
      "label_normalized": "related subject or pool identifier",
      "type": "C",
      "length": "200",
      "core": "Exp",
      "role": "Identifier",
      "format": "",
      "codelist_code": "",
      "seq": "3",
      "origin": "Derived",
      "dataset_level": "Corporate",
      "is_supplemental": false,
      "base_domain": "APRELSUB"
    },
    {
      "dataset": "APRELSUB",
      "variable": "RDEVID",
      "label": "Related Device Identifier",
      "label_normalized": "related device identifier",
      "type": "C",
      "length": "200",
      "core": "Perm",
      "role": "Identifier",
      "format": "",
      "codelist_code": "",
      "seq": "4",
      "origin": "Derived",
      "dataset_level": "Corporate",
      "is_supplemental": false,
      "base_domain": "APRELSUB"
    },
    {
      "dataset": "APRELSUB",
      "variable": "SREL",
      "label": "Subject, Device, or Study Relationship",
      "label_normalized": "subject, device, or study relationship",
      "type": "C",
      "length": "200",
      "core": "Req",
      "role": "Record Qualifier",
      "format": "",
      "codelist_code": "",
      "seq": "5",
      "origin": "CRF",
      "dataset_level": "Corporate",
      "is_supplemental": false,
      "base_domain": "APRELSUB"
    }
  ],
  "BE": [
    {
      "dataset": "BE",
      "variable": "STUDYID",
      "label": "Study Identifier",
      "label_normalized": "study identifier",
      "type": "C",
      "length": "21",
      "core": "Req",
      "role": "Identifier",
      "format": "",
      "codelist_code": "",
      "seq": "1",
      "origin": "Protocol",
      "dataset_level": "Corporate",
      "is_supplemental": false,
      "base_domain": "BE"
    },
    {
      "dataset": "BE",
      "variable": "DOMAIN",
      "label": "Domain Abbreviation",
      "label_normalized": "domain abbreviation",
      "type": "C",
      "length": "8",
      "core": "Req",
      "role": "Identifier",
      "format": "(DOMAIN)",
      "codelist_code": "",
      "seq": "2",
      "origin": "Assigned",
      "dataset_level": "Corporate",
      "is_supplemental": false,
      "base_domain": "BE"
    },
    {
      "dataset": "BE",
      "variable": "USUBJID",
      "label": "Unique Subject Identifier",
      "label_normalized": "unique subject identifier",
      "type": "C",
      "length": "30",
      "core": "Req",
      "role": "Identifier",
      "format": "",
      "codelist_code": "",
      "seq": "3",
      "origin": "Derived",
      "dataset_level": "Corporate",
      "is_supplemental": false,
      "base_domain": "BE"
    },
    {
      "dataset": "BE",
      "variable": "SPDEVID",
      "label": "Sponsor Device Identifier",
      "label_normalized": "sponsor device identifier",
      "type": "C",
      "length": "40",
      "core": "Perm",
      "role": "Identifier",
      "format": "",
      "codelist_code": "",
      "seq": "4",
      "origin": "CRF",
      "dataset_level": "Corporate",
      "is_supplemental": false,
      "base_domain": "BE"
    },
    {
      "dataset": "BE",
      "variable": "BESEQ",
      "label": "Sequence Number",
      "label_normalized": "sequence number",
      "type": "N",
      "length": "8",
      "core": "Req",
      "role": "Identifier",
      "format": "",
      "codelist_code": "",
      "seq": "5",
      "origin": "Derived",
      "dataset_level": "Corporate",
      "is_supplemental": false,
      "base_domain": "BE"
    },
    {
      "dataset": "BE",
      "variable": "BEGRPID",
      "label": "Group ID",
      "label_normalized": "group id",
      "type": "C",
      "length": "40",
      "core": "Perm",
      "role": "Identifier",
      "format": "",
      "codelist_code": "",
      "seq": "6",
      "origin": "Derived",
      "dataset_level": "Corporate",
      "is_supplemental": false,
      "base_domain": "BE"
    },
    {
      "dataset": "BE",
      "variable": "BEREFID",
      "label": "Reference ID",
      "label_normalized": "reference id",
      "type": "C",
      "length": "40",
      "core": "Exp",
      "role": "Identifier",
      "format": "",
      "codelist_code": "",
      "seq": "7",
      "origin": "",
      "dataset_level": "Corporate",
      "is_supplemental": false,
      "base_domain": "BE"
    },
    {
      "dataset": "BE",
      "variable": "BESPID",
      "label": "Sponsor-Defined Identifier",
      "label_normalized": "sponsor-defined identifier",
      "type": "C",
      "length": "40",
      "core": "Perm",
      "role": "Identifier",
      "format": "",
      "codelist_code": "",
      "seq": "8",
      "origin": "",
      "dataset_level": "Corporate",
      "is_supplemental": false,
      "base_domain": "BE"
    },
    {
      "dataset": "BE",
      "variable": "BETERM",
      "label": "Reported Term for the Biospecimen Event",
      "label_normalized": "reported term for the biospecimen event",
      "type": "C",
      "length": "200",
      "core": "Req",
      "role": "Topic",
      "format": "",
      "codelist_code": "",
      "seq": "9",
      "origin": "CRF",
      "dataset_level": "Corporate",
      "is_supplemental": false,
      "base_domain": "BE"
    },
    {
      "dataset": "BE",
      "variable": "BEMODIFY",
      "label": "Modified Reported Term",
      "label_normalized": "modified reported term",
      "type": "C",
      "length": "200",
      "core": "Perm",
      "role": "Synonym Qualifier",
      "format": "",
      "codelist_code": "",
      "seq": "10",
      "origin": "Assigned",
      "dataset_level": "Corporate",
      "is_supplemental": false,
      "base_domain": "BE"
    },
    {
      "dataset": "BE",
      "variable": "BEDECOD",
      "label": "Dictionary-Derived Term",
      "label_normalized": "dictionary-derived term",
      "type": "C",
      "length": "200",
      "core": "Perm",
      "role": "Synonym Qualifier",
      "format": "(BEDECOD)",
      "codelist_code": "",
      "seq": "11",
      "origin": "Assigned",
      "dataset_level": "Corporate",
      "is_supplemental": false,
      "base_domain": "BE"
    },
    {
      "dataset": "BE",
      "variable": "BECAT",
      "label": "Category for Biospecimen Event",
      "label_normalized": "category for biospecimen event",
      "type": "C",
      "length": "40",
      "core": "Perm",
      "role": "Grouping Qualifier",
      "format": "",
      "codelist_code": "",
      "seq": "12",
      "origin": "Assigned",
      "dataset_level": "Corporate",
      "is_supplemental": false,
      "base_domain": "BE"
    },
    {
      "dataset": "BE",
      "variable": "BESCAT",
      "label": "Subcategory for Biospecimen Event",
      "label_normalized": "subcategory for biospecimen event",
      "type": "C",
      "length": "40",
      "core": "Perm",
      "role": "Grouping Qualifier",
      "format": "",
      "codelist_code": "",
      "seq": "13",
      "origin": "Assigned",
      "dataset_level": "Corporate",
      "is_supplemental": false,
      "base_domain": "BE"
    },
    {
      "dataset": "BE",
      "variable": "BELOC",
      "label": "Anatomical Location of Event",
      "label_normalized": "anatomical location of event",
      "type": "C",
      "length": "40",
      "core": "Perm",
      "role": "Record Qualifier",
      "format": "(LOC)",
      "codelist_code": "",
      "seq": "14",
      "origin": "CRF",
      "dataset_level": "Corporate",
      "is_supplemental": false,
      "base_domain": "BE"
    },
    {
      "dataset": "BE",
      "variable": "BEPARTY",
      "label": "Accountable Party",
      "label_normalized": "accountable party",
      "type": "C",
      "length": "200",
      "core": "Perm",
      "role": "Variable Qualifier",
      "format": "",
      "codelist_code": "",
      "seq": "15",
      "origin": "",
      "dataset_level": "Corporate",
      "is_supplemental": false,
      "base_domain": "BE"
    },
    {
      "dataset": "BE",
      "variable": "BEPRTYID",
      "label": "Identification of Accountable Party",
      "label_normalized": "identification of accountable party",
      "type": "C",
      "length": "40",
      "core": "Perm",
      "role": "Record Qualifier",
      "format": "",
      "codelist_code": "",
      "seq": "16",
      "origin": "",
      "dataset_level": "Corporate",
      "is_supplemental": false,
      "base_domain": "BE"
    },
    {
      "dataset": "BE",
      "variable": "VISITNUM",
      "label": "Visit Number",
      "label_normalized": "visit number",
      "type": "N",
      "length": "8",
      "core": "Exp",
      "role": "Timing",
      "format": "",
      "codelist_code": "",
      "seq": "17",
      "origin": "Derived",
      "dataset_level": "Corporate",
      "is_supplemental": false,
      "base_domain": "BE"
    },
    {
      "dataset": "BE",
      "variable": "VISIT",
      "label": "Visit Name",
      "label_normalized": "visit name",
      "type": "C",
      "length": "40",
      "core": "Perm",
      "role": "Timing",
      "format": "",
      "codelist_code": "",
      "seq": "18",
      "origin": "Protocol",
      "dataset_level": "Corporate",
      "is_supplemental": false,
      "base_domain": "BE"
    },
    {
      "dataset": "BE",
      "variable": "VISITDY",
      "label": "Planned Study Day of Visit",
      "label_normalized": "planned study day of visit",
      "type": "N",
      "length": "8",
      "core": "Perm",
      "role": "Timing",
      "format": "",
      "codelist_code": "",
      "seq": "19",
      "origin": "Assigned",
      "dataset_level": "Corporate",
      "is_supplemental": false,
      "base_domain": "BE"
    },
    {
      "dataset": "BE",
      "variable": "BEDTC",
      "label": "Date/Time of Specimen Collection",
      "label_normalized": "date/time of specimen collection",
      "type": "C",
      "length": "19",
      "core": "Exp",
      "role": "Timing",
      "format": "ISO 8601",
      "codelist_code": "",
      "seq": "20",
      "origin": "CRF",
      "dataset_level": "Corporate",
      "is_supplemental": false,
      "base_domain": "BE"
    },
    {
      "dataset": "BE",
      "variable": "BESTDTC",
      "label": "Start Date/Time of Biospecimen Event",
      "label_normalized": "start date/time of biospecimen event",
      "type": "C",
      "length": "19",
      "core": "Exp",
      "role": "Timing",
      "format": "ISO 8601",
      "codelist_code": "",
      "seq": "21",
      "origin": "CRF",
      "dataset_level": "Corporate",
      "is_supplemental": false,
      "base_domain": "BE"
    },
    {
      "dataset": "BE",
      "variable": "BEENDTC",
      "label": "End Date/Time of Biospecimen Event",
      "label_normalized": "end date/time of biospecimen event",
      "type": "C",
      "length": "19",
      "core": "Exp",
      "role": "Timing",
      "format": "ISO 8601",
      "codelist_code": "",
      "seq": "22",
      "origin": "CRF",
      "dataset_level": "Corporate",
      "is_supplemental": false,
      "base_domain": "BE"
    },
    {
      "dataset": "BE",
      "variable": "BESTDY",
      "label": "Study Day of Start of Biospecimen Event",
      "label_normalized": "study day of start of biospecimen event",
      "type": "N",
      "length": "8",
      "core": "Perm",
      "role": "Timing",
      "format": "",
      "codelist_code": "",
      "seq": "23",
      "origin": "Derived",
      "dataset_level": "Corporate",
      "is_supplemental": false,
      "base_domain": "BE"
    },
    {
      "dataset": "BE",
      "variable": "BEENDY",
      "label": "Study Day of End of Biospecimen Event",
      "label_normalized": "study day of end of biospecimen event",
      "type": "N",
      "length": "8",
      "core": "Perm",
      "role": "Timing",
      "format": "",
      "codelist_code": "",
      "seq": "24",
      "origin": "Derived",
      "dataset_level": "Corporate",
      "is_supplemental": false,
      "base_domain": "BE"
    },
    {
      "dataset": "BE",
      "variable": "BEDUR",
      "label": "Duration of Biospecimen Event",
      "label_normalized": "duration of biospecimen event",
      "type": "C",
      "length": "40",
      "core": "Perm",
      "role": "Timing",
      "format": "",
      "codelist_code": "",
      "seq": "25",
      "origin": "CRF",
      "dataset_level": "Corporate",
      "is_supplemental": false,
      "base_domain": "BE"
    }
  ],
  "BS": [
    {
      "dataset": "BS",
      "variable": "STUDYID",
      "label": "Study Identifier",
      "label_normalized": "study identifier",
      "type": "C",
      "length": "21",
      "core": "Req",
      "role": "Identifier",
      "format": "",
      "codelist_code": "",
      "seq": "1",
      "origin": "Protocol",
      "dataset_level": "Corporate",
      "is_supplemental": false,
      "base_domain": "BS"
    },
    {
      "dataset": "BS",
      "variable": "DOMAIN",
      "label": "Domain Abbreviation",
      "label_normalized": "domain abbreviation",
      "type": "C",
      "length": "8",
      "core": "Req",
      "role": "Identifier",
      "format": "(DOMAIN)",
      "codelist_code": "",
      "seq": "2",
      "origin": "Assigned",
      "dataset_level": "Corporate",
      "is_supplemental": false,
      "base_domain": "BS"
    },
    {
      "dataset": "BS",
      "variable": "USUBJID",
      "label": "Unique Subject Identifier",
      "label_normalized": "unique subject identifier",
      "type": "C",
      "length": "30",
      "core": "Req",
      "role": "Identifier",
      "format": "",
      "codelist_code": "",
      "seq": "3",
      "origin": "Derived",
      "dataset_level": "Corporate",
      "is_supplemental": false,
      "base_domain": "BS"
    },
    {
      "dataset": "BS",
      "variable": "SPDEVID",
      "label": "Sponsor Device Identifier",
      "label_normalized": "sponsor device identifier",
      "type": "C",
      "length": "40",
      "core": "Perm",
      "role": "Identifier",
      "format": "",
      "codelist_code": "",
      "seq": "4",
      "origin": "CRF",
      "dataset_level": "Corporate",
      "is_supplemental": false,
      "base_domain": "BS"
    },
    {
      "dataset": "BS",
      "variable": "BSSEQ",
      "label": "Sequence Number",
      "label_normalized": "sequence number",
      "type": "N",
      "length": "8",
      "core": "Req",
      "role": "Identifier",
      "format": "",
      "codelist_code": "",
      "seq": "5",
      "origin": "Derived",
      "dataset_level": "Corporate",
      "is_supplemental": false,
      "base_domain": "BS"
    },
    {
      "dataset": "BS",
      "variable": "BSGRPID",
      "label": "Group ID",
      "label_normalized": "group id",
      "type": "C",
      "length": "40",
      "core": "Perm",
      "role": "Identifier",
      "format": "",
      "codelist_code": "",
      "seq": "6",
      "origin": "Derived",
      "dataset_level": "Corporate",
      "is_supplemental": false,
      "base_domain": "BS"
    },
    {
      "dataset": "BS",
      "variable": "BSREFID",
      "label": "Reference ID",
      "label_normalized": "reference id",
      "type": "C",
      "length": "40",
      "core": "Exp",
      "role": "Identifier",
      "format": "",
      "codelist_code": "",
      "seq": "7",
      "origin": "",
      "dataset_level": "Corporate",
      "is_supplemental": false,
      "base_domain": "BS"
    },
    {
      "dataset": "BS",
      "variable": "BSSPID",
      "label": "Sponsor-Defined Identifier",
      "label_normalized": "sponsor-defined identifier",
      "type": "C",
      "length": "40",
      "core": "Perm",
      "role": "Identifier",
      "format": "",
      "codelist_code": "",
      "seq": "8",
      "origin": "",
      "dataset_level": "Corporate",
      "is_supplemental": false,
      "base_domain": "BS"
    },
    {
      "dataset": "BS",
      "variable": "BSTESTCD",
      "label": "Biospecimen Test Short Name",
      "label_normalized": "biospecimen test short name",
      "type": "C",
      "length": "8",
      "core": "Req",
      "role": "Topic",
      "format": "(BSTESTCD)",
      "codelist_code": "",
      "seq": "9",
      "origin": "CRF",
      "dataset_level": "Corporate",
      "is_supplemental": false,
      "base_domain": "BS"
    },
    {
      "dataset": "BS",
      "variable": "BSTEST",
      "label": "Biospecimen Test Name",
      "label_normalized": "biospecimen test name",
      "type": "C",
      "length": "40",
      "core": "Req",
      "role": "Synonym Qualifier",
      "format": "(BSTEST)",
      "codelist_code": "",
      "seq": "10",
      "origin": "Assigned",
      "dataset_level": "Corporate",
      "is_supplemental": false,
      "base_domain": "BS"
    },
    {
      "dataset": "BS",
      "variable": "BSCAT",
      "label": "Category for Biospecimen Test",
      "label_normalized": "category for biospecimen test",
      "type": "C",
      "length": "40",
      "core": "Exp",
      "role": "Grouping Qualifier",
      "format": "",
      "codelist_code": "",
      "seq": "11",
      "origin": "Assigned",
      "dataset_level": "Corporate",
      "is_supplemental": false,
      "base_domain": "BS"
    },
    {
      "dataset": "BS",
      "variable": "BSSCAT",
      "label": "Subcategory for Biospecimen Test",
      "label_normalized": "subcategory for biospecimen test",
      "type": "C",
      "length": "40",
      "core": "Perm",
      "role": "Grouping Qualifier",
      "format": "",
      "codelist_code": "",
      "seq": "12",
      "origin": "Assigned",
      "dataset_level": "Corporate",
      "is_supplemental": false,
      "base_domain": "BS"
    },
    {
      "dataset": "BS",
      "variable": "BSORRES",
      "label": "Result or Finding in Original Units",
      "label_normalized": "result or finding in original units",
      "type": "C",
      "length": "200",
      "core": "Exp",
      "role": "Result Qualifier",
      "format": "",
      "codelist_code": "",
      "seq": "13",
      "origin": "CRF",
      "dataset_level": "Corporate",
      "is_supplemental": false,
      "base_domain": "BS"
    },
    {
      "dataset": "BS",
      "variable": "BSORRESU",
      "label": "Original Units",
      "label_normalized": "original units",
      "type": "C",
      "length": "40",
      "core": "Exp",
      "role": "Variable Qualifier",
      "format": "(UNIT)",
      "codelist_code": "",
      "seq": "14",
      "origin": "CRF",
      "dataset_level": "Corporate",
      "is_supplemental": false,
      "base_domain": "BS"
    },
    {
      "dataset": "BS",
      "variable": "BSSTRESC",
      "label": "Character Result/Finding in Std Format",
      "label_normalized": "character result/finding in std format",
      "type": "C",
      "length": "200",
      "core": "Exp",
      "role": "Result Qualifier",
      "format": "",
      "codelist_code": "",
      "seq": "15",
      "origin": "",
      "dataset_level": "Corporate",
      "is_supplemental": false,
      "base_domain": "BS"
    },
    {
      "dataset": "BS",
      "variable": "BSSTRESN",
      "label": "Numeric Result/Finding in Standard Units",
      "label_normalized": "numeric result/finding in standard units",
      "type": "N",
      "length": "8",
      "core": "Exp",
      "role": "Result Qualifier",
      "format": "",
      "codelist_code": "",
      "seq": "16",
      "origin": "",
      "dataset_level": "Corporate",
      "is_supplemental": false,
      "base_domain": "BS"
    },
    {
      "dataset": "BS",
      "variable": "BSSTRESU",
      "label": "Standard Units",
      "label_normalized": "standard units",
      "type": "C",
      "length": "40",
      "core": "Exp",
      "role": "Variable Qualifier",
      "format": "(UNIT)",
      "codelist_code": "",
      "seq": "17",
      "origin": "",
      "dataset_level": "Corporate",
      "is_supplemental": false,
      "base_domain": "BS"
    },
    {
      "dataset": "BS",
      "variable": "BSSTAT",
      "label": "Completion Status",
      "label_normalized": "completion status",
      "type": "C",
      "length": "40",
      "core": "Perm",
      "role": "Record Qualifier",
      "format": "(ND)",
      "codelist_code": "",
      "seq": "18",
      "origin": "Derived",
      "dataset_level": "Corporate",
      "is_supplemental": false,
      "base_domain": "BS"
    },
    {
      "dataset": "BS",
      "variable": "BSREASND",
      "label": "Reason Test Not Done",
      "label_normalized": "reason test not done",
      "type": "C",
      "length": "200",
      "core": "Perm",
      "role": "Record Qualifier",
      "format": "",
      "codelist_code": "",
      "seq": "19",
      "origin": "CRF",
      "dataset_level": "Corporate",
      "is_supplemental": false,
      "base_domain": "BS"
    },
    {
      "dataset": "BS",
      "variable": "BSNAM",
      "label": "Vendor Name",
      "label_normalized": "vendor name",
      "type": "C",
      "length": "200",
      "core": "Perm",
      "role": "Record Qualifier",
      "format": "",
      "codelist_code": "",
      "seq": "20",
      "origin": "CRF",
      "dataset_level": "Corporate",
      "is_supplemental": false,
      "base_domain": "BS"
    },
    {
      "dataset": "BS",
      "variable": "BSSPEC",
      "label": "Specimen Type",
      "label_normalized": "specimen type",
      "type": "C",
      "length": "200",
      "core": "Perm",
      "role": "Record Qualifier",
      "format": "",
      "codelist_code": "",
      "seq": "21",
      "origin": "CRF",
      "dataset_level": "Corporate",
      "is_supplemental": false,
      "base_domain": "BS"
    },
    {
      "dataset": "BS",
      "variable": "BSANTREG",
      "label": "Anatomical Region of Specimen",
      "label_normalized": "anatomical region of specimen",
      "type": "C",
      "length": "40",
      "core": "Perm",
      "role": "Variable Qualifier",
      "format": "",
      "codelist_code": "",
      "seq": "22",
      "origin": "CRF",
      "dataset_level": "Corporate",
      "is_supplemental": false,
      "base_domain": "BS"
    },
    {
      "dataset": "BS",
      "variable": "BSSPCCND",
      "label": "Specimen Condition",
      "label_normalized": "specimen condition",
      "type": "C",
      "length": "200",
      "core": "Perm",
      "role": "Record Qualifier",
      "format": "(SPECCOND)",
      "codelist_code": "",
      "seq": "23",
      "origin": "CRF",
      "dataset_level": "Corporate",
      "is_supplemental": false,
      "base_domain": "BS"
    },
    {
      "dataset": "BS",
      "variable": "BSMETHOD",
      "label": "Method of Test or Examination",
      "label_normalized": "method of test or examination",
      "type": "C",
      "length": "200",
      "core": "Perm",
      "role": "Record Qualifier",
      "format": "(METHOD)",
      "codelist_code": "",
      "seq": "24",
      "origin": "CRF",
      "dataset_level": "Corporate",
      "is_supplemental": false,
      "base_domain": "BS"
    },
    {
      "dataset": "BS",
      "variable": "BSLOBXFL",
      "label": "Last Observation Before Exposure Flag",
      "label_normalized": "last observation before exposure flag",
      "type": "C",
      "length": "1",
      "core": "Exp",
      "role": "Record Qualifier",
      "format": "(NY)",
      "codelist_code": "",
      "seq": "25",
      "origin": "Derived",
      "dataset_level": "Corporate",
      "is_supplemental": false,
      "base_domain": "BS"
    },
    {
      "dataset": "BS",
      "variable": "BSBLFL",
      "label": "Baseline Flag",
      "label_normalized": "baseline flag",
      "type": "C",
      "length": "1",
      "core": "Perm",
      "role": "Record Qualifier",
      "format": "(NY)",
      "codelist_code": "",
      "seq": "26",
      "origin": "Derived",
      "dataset_level": "Corporate",
      "is_supplemental": false,
      "base_domain": "BS"
    },
    {
      "dataset": "BS",
      "variable": "VISITNUM",
      "label": "Visit Number",
      "label_normalized": "visit number",
      "type": "N",
      "length": "8",
      "core": "Exp",
      "role": "Timing",
      "format": "",
      "codelist_code": "",
      "seq": "27",
      "origin": "Derived",
      "dataset_level": "Corporate",
      "is_supplemental": false,
      "base_domain": "BS"
    },
    {
      "dataset": "BS",
      "variable": "VISIT",
      "label": "Visit Name",
      "label_normalized": "visit name",
      "type": "C",
      "length": "40",
      "core": "Perm",
      "role": "Timing",
      "format": "",
      "codelist_code": "",
      "seq": "28",
      "origin": "Protocol",
      "dataset_level": "Corporate",
      "is_supplemental": false,
      "base_domain": "BS"
    },
    {
      "dataset": "BS",
      "variable": "VISITDY",
      "label": "Planned Study Day of Visit",
      "label_normalized": "planned study day of visit",
      "type": "N",
      "length": "8",
      "core": "Perm",
      "role": "Timing",
      "format": "",
      "codelist_code": "",
      "seq": "29",
      "origin": "Assigned",
      "dataset_level": "Corporate",
      "is_supplemental": false,
      "base_domain": "BS"
    },
    {
      "dataset": "BS",
      "variable": "EPOCH",
      "label": "Epoch",
      "label_normalized": "epoch",
      "type": "C",
      "length": "40",
      "core": "Perm",
      "role": "Timing",
      "format": "(EPOCH)",
      "codelist_code": "",
      "seq": "30",
      "origin": "Protocol",
      "dataset_level": "Corporate",
      "is_supplemental": false,
      "base_domain": "BS"
    },
    {
      "dataset": "BS",
      "variable": "BSDTC",
      "label": "Date/Time of Specimen Collection",
      "label_normalized": "date/time of specimen collection",
      "type": "C",
      "length": "19",
      "core": "Exp",
      "role": "Timing",
      "format": "ISO 8601",
      "codelist_code": "",
      "seq": "31",
      "origin": "CRF",
      "dataset_level": "Corporate",
      "is_supplemental": false,
      "base_domain": "BS"
    },
    {
      "dataset": "BS",
      "variable": "BSDY",
      "label": "Study Day of Specimen Collection",
      "label_normalized": "study day of specimen collection",
      "type": "N",
      "length": "8",
      "core": "Perm",
      "role": "Timing",
      "format": "",
      "codelist_code": "",
      "seq": "32",
      "origin": "Derived",
      "dataset_level": "Corporate",
      "is_supplemental": false,
      "base_domain": "BS"
    },
    {
      "dataset": "BS",
      "variable": "BSTPT",
      "label": "Planned Time Point Name",
      "label_normalized": "planned time point name",
      "type": "C",
      "length": "40",
      "core": "Perm",
      "role": "Timing",
      "format": "",
      "codelist_code": "",
      "seq": "33",
      "origin": "Assigned",
      "dataset_level": "Corporate",
      "is_supplemental": false,
      "base_domain": "BS"
    },
    {
      "dataset": "BS",
      "variable": "BSTPTNUM",
      "label": "Planned Time Point Number",
      "label_normalized": "planned time point number",
      "type": "N",
      "length": "8",
      "core": "Perm",
      "role": "Timing",
      "format": "",
      "codelist_code": "",
      "seq": "34",
      "origin": "Assigned",
      "dataset_level": "Corporate",
      "is_supplemental": false,
      "base_domain": "BS"
    },
    {
      "dataset": "BS",
      "variable": "BSELTM",
      "label": "Planned Elapsed Time from Time Point Ref",
      "label_normalized": "planned elapsed time from time point ref",
      "type": "C",
      "length": "40",
      "core": "Perm",
      "role": "Timing",
      "format": "ISO 8601",
      "codelist_code": "",
      "seq": "35",
      "origin": "Derived",
      "dataset_level": "Corporate",
      "is_supplemental": false,
      "base_domain": "BS"
    },
    {
      "dataset": "BS",
      "variable": "BSSTPTREF",
      "label": "Time Point Reference",
      "label_normalized": "time point reference",
      "type": "C",
      "length": "40",
      "core": "Perm",
      "role": "Timing",
      "format": "",
      "codelist_code": "",
      "seq": "36",
      "origin": "Assigned",
      "dataset_level": "Corporate",
      "is_supplemental": false,
      "base_domain": "BS"
    },
    {
      "dataset": "BS",
      "variable": "BSRFTDTC",
      "label": "Date/Time of Reference Time Point",
      "label_normalized": "date/time of reference time point",
      "type": "C",
      "length": "19",
      "core": "Perm",
      "role": "Timing",
      "format": "ISO 8601",
      "codelist_code": "",
      "seq": "37",
      "origin": "Assigned",
      "dataset_level": "Corporate",
      "is_supplemental": false,
      "base_domain": "BS"
    }
  ],
  "CE": [
    {
      "dataset": "CE",
      "variable": "STUDYID",
      "label": "Study Identifier",
      "label_normalized": "study identifier",
      "type": "C",
      "length": "21",
      "core": "Req",
      "role": "Identifier",
      "format": "",
      "codelist_code": "",
      "seq": "1",
      "origin": "Protocol",
      "dataset_level": "Corporate",
      "is_supplemental": false,
      "base_domain": "CE"
    },
    {
      "dataset": "CE",
      "variable": "DOMAIN",
      "label": "Domain Abbreviation",
      "label_normalized": "domain abbreviation",
      "type": "C",
      "length": "8",
      "core": "Req",
      "role": "Identifier",
      "format": "(DOMAIN)",
      "codelist_code": "",
      "seq": "2",
      "origin": "Assigned",
      "dataset_level": "Corporate",
      "is_supplemental": false,
      "base_domain": "CE"
    },
    {
      "dataset": "CE",
      "variable": "USUBJID",
      "label": "Unique Subject Identifier",
      "label_normalized": "unique subject identifier",
      "type": "C",
      "length": "30",
      "core": "Req",
      "role": "Identifier",
      "format": "",
      "codelist_code": "",
      "seq": "3",
      "origin": "Derived",
      "dataset_level": "Corporate",
      "is_supplemental": false,
      "base_domain": "CE"
    },
    {
      "dataset": "CE",
      "variable": "CESEQ",
      "label": "Sequence Number",
      "label_normalized": "sequence number",
      "type": "N",
      "length": "8",
      "core": "Req",
      "role": "Identifier",
      "format": "",
      "codelist_code": "",
      "seq": "4",
      "origin": "Derived",
      "dataset_level": "Corporate",
      "is_supplemental": false,
      "base_domain": "CE"
    },
    {
      "dataset": "CE",
      "variable": "CEGRPID",
      "label": "Group ID",
      "label_normalized": "group id",
      "type": "C",
      "length": "40",
      "core": "Perm",
      "role": "Identifier",
      "format": "",
      "codelist_code": "",
      "seq": "5",
      "origin": "Derived",
      "dataset_level": "Corporate",
      "is_supplemental": false,
      "base_domain": "CE"
    },
    {
      "dataset": "CE",
      "variable": "CEREFID",
      "label": "Reference ID",
      "label_normalized": "reference id",
      "type": "C",
      "length": "40",
      "core": "Perm",
      "role": "Identifier",
      "format": "",
      "codelist_code": "",
      "seq": "6",
      "origin": "CRF",
      "dataset_level": "Corporate",
      "is_supplemental": false,
      "base_domain": "CE"
    },
    {
      "dataset": "CE",
      "variable": "CESPID",
      "label": "Sponsor-Defined Identifier",
      "label_normalized": "sponsor-defined identifier",
      "type": "C",
      "length": "40",
      "core": "Perm",
      "role": "Identifier",
      "format": "",
      "codelist_code": "",
      "seq": "7",
      "origin": "Assigned",
      "dataset_level": "Corporate",
      "is_supplemental": false,
      "base_domain": "CE"
    },
    {
      "dataset": "CE",
      "variable": "CELNKID",
      "label": "Link ID",
      "label_normalized": "link id",
      "type": "C",
      "length": "40",
      "core": "Perm",
      "role": "Identifier",
      "format": "",
      "codelist_code": "",
      "seq": "8",
      "origin": "Derived",
      "dataset_level": "Corporate",
      "is_supplemental": false,
      "base_domain": "CE"
    },
    {
      "dataset": "CE",
      "variable": "CELNKGRP",
      "label": "Link Group ID",
      "label_normalized": "link group id",
      "type": "C",
      "length": "40",
      "core": "Perm",
      "role": "Identifier",
      "format": "",
      "codelist_code": "",
      "seq": "9",
      "origin": "Derived",
      "dataset_level": "Corporate",
      "is_supplemental": false,
      "base_domain": "CE"
    },
    {
      "dataset": "CE",
      "variable": "CETERM",
      "label": "Reported Term for the Clinical Event",
      "label_normalized": "reported term for the clinical event",
      "type": "C",
      "length": "200",
      "core": "Req",
      "role": "Topic",
      "format": "",
      "codelist_code": "",
      "seq": "10",
      "origin": "CRF",
      "dataset_level": "Corporate",
      "is_supplemental": false,
      "base_domain": "CE"
    },
    {
      "dataset": "CE",
      "variable": "CEMODIFY",
      "label": "Modified Reported Term",
      "label_normalized": "modified reported term",
      "type": "C",
      "length": "200",
      "core": "Perm",
      "role": "Synonym Qualifier",
      "format": "",
      "codelist_code": "",
      "seq": "11",
      "origin": "Assigned",
      "dataset_level": "Corporate",
      "is_supplemental": false,
      "base_domain": "CE"
    },
    {
      "dataset": "CE",
      "variable": "CELLT",
      "label": "Lowest Level Term",
      "label_normalized": "lowest level term",
      "type": "C",
      "length": "200",
      "core": "Perm",
      "role": "Variable Qualifier",
      "format": "MedDRA",
      "codelist_code": "",
      "seq": "12",
      "origin": "Assigned",
      "dataset_level": "Corporate",
      "is_supplemental": false,
      "base_domain": "CE"
    },
    {
      "dataset": "CE",
      "variable": "CELLTCD",
      "label": "Lowest Level Term Code",
      "label_normalized": "lowest level term code",
      "type": "N",
      "length": "8",
      "core": "Perm",
      "role": "Variable Qualifier",
      "format": "MedDRA",
      "codelist_code": "",
      "seq": "13",
      "origin": "Assigned",
      "dataset_level": "Corporate",
      "is_supplemental": false,
      "base_domain": "CE"
    },
    {
      "dataset": "CE",
      "variable": "CEDECOD",
      "label": "Dictionary-Derived Term",
      "label_normalized": "dictionary-derived term",
      "type": "C",
      "length": "200",
      "core": "Perm",
      "role": "Synonym Qualifier",
      "format": "",
      "codelist_code": "",
      "seq": "14",
      "origin": "Assigned",
      "dataset_level": "Corporate",
      "is_supplemental": false,
      "base_domain": "CE"
    },
    {
      "dataset": "CE",
      "variable": "CEPTCD",
      "label": "Preferred Term Code",
      "label_normalized": "preferred term code",
      "type": "N",
      "length": "8",
      "core": "Perm",
      "role": "Variable Qualifier",
      "format": "MedDRA",
      "codelist_code": "",
      "seq": "15",
      "origin": "Assigned",
      "dataset_level": "Corporate",
      "is_supplemental": false,
      "base_domain": "CE"
    },
    {
      "dataset": "CE",
      "variable": "CEHLT",
      "label": "High Level Term",
      "label_normalized": "high level term",
      "type": "C",
      "length": "200",
      "core": "Perm",
      "role": "Variable Qualifier",
      "format": "MedDRA",
      "codelist_code": "",
      "seq": "16",
      "origin": "Assigned",
      "dataset_level": "Corporate",
      "is_supplemental": false,
      "base_domain": "CE"
    },
    {
      "dataset": "CE",
      "variable": "CEHLTCD",
      "label": "High Level Term Code",
      "label_normalized": "high level term code",
      "type": "N",
      "length": "8",
      "core": "Perm",
      "role": "Variable Qualifier",
      "format": "MedDRA",
      "codelist_code": "",
      "seq": "17",
      "origin": "Assigned",
      "dataset_level": "Corporate",
      "is_supplemental": false,
      "base_domain": "CE"
    },
    {
      "dataset": "CE",
      "variable": "CEHLGT",
      "label": "High Level Group Term",
      "label_normalized": "high level group term",
      "type": "C",
      "length": "200",
      "core": "Perm",
      "role": "Variable Qualifier",
      "format": "MedDRA",
      "codelist_code": "",
      "seq": "18",
      "origin": "Assigned",
      "dataset_level": "Corporate",
      "is_supplemental": false,
      "base_domain": "CE"
    },
    {
      "dataset": "CE",
      "variable": "CEHLGTCD",
      "label": "High Level Group Term Code",
      "label_normalized": "high level group term code",
      "type": "N",
      "length": "8",
      "core": "Perm",
      "role": "Variable Qualifier",
      "format": "MedDRA",
      "codelist_code": "",
      "seq": "19",
      "origin": "Assigned",
      "dataset_level": "Corporate",
      "is_supplemental": false,
      "base_domain": "CE"
    },
    {
      "dataset": "CE",
      "variable": "CECAT",
      "label": "Category for the Clinical Event",
      "label_normalized": "category for the clinical event",
      "type": "C",
      "length": "40",
      "core": "Perm",
      "role": "Grouping Qualifier",
      "format": "",
      "codelist_code": "",
      "seq": "20",
      "origin": "Assigned",
      "dataset_level": "Corporate",
      "is_supplemental": false,
      "base_domain": "CE"
    },
    {
      "dataset": "CE",
      "variable": "CESCAT",
      "label": "Subcategory for the Clinical Event",
      "label_normalized": "subcategory for the clinical event",
      "type": "C",
      "length": "40",
      "core": "Perm",
      "role": "Grouping Qualifier",
      "format": "",
      "codelist_code": "",
      "seq": "21",
      "origin": "Assigned",
      "dataset_level": "Corporate",
      "is_supplemental": false,
      "base_domain": "CE"
    },
    {
      "dataset": "CE",
      "variable": "CEPRESP",
      "label": "Clinical Event Pre-specified",
      "label_normalized": "clinical event pre-specified",
      "type": "C",
      "length": "1",
      "core": "Perm",
      "role": "Variable Qualifier",
      "format": "(NY)",
      "codelist_code": "",
      "seq": "22",
      "origin": "Assigned",
      "dataset_level": "Corporate",
      "is_supplemental": false,
      "base_domain": "CE"
    },
    {
      "dataset": "CE",
      "variable": "CEOCCUR",
      "label": "Clinical Event Occurrence",
      "label_normalized": "clinical event occurrence",
      "type": "C",
      "length": "1",
      "core": "Perm",
      "role": "Record Qualifier",
      "format": "(NY)",
      "codelist_code": "",
      "seq": "23",
      "origin": "CRF",
      "dataset_level": "Corporate",
      "is_supplemental": false,
      "base_domain": "CE"
    },
    {
      "dataset": "CE",
      "variable": "CESTAT",
      "label": "Completion Status",
      "label_normalized": "completion status",
      "type": "C",
      "length": "8",
      "core": "Perm",
      "role": "Record Qualifier",
      "format": "(ND)",
      "codelist_code": "",
      "seq": "24",
      "origin": "Derived",
      "dataset_level": "Corporate",
      "is_supplemental": false,
      "base_domain": "CE"
    },
    {
      "dataset": "CE",
      "variable": "CEREASND",
      "label": "Reason Clinical Event Not Collected",
      "label_normalized": "reason clinical event not collected",
      "type": "C",
      "length": "200",
      "core": "Perm",
      "role": "Record Qualifier",
      "format": "",
      "codelist_code": "",
      "seq": "25",
      "origin": "CRF",
      "dataset_level": "Corporate",
      "is_supplemental": false,
      "base_domain": "CE"
    },
    {
      "dataset": "CE",
      "variable": "CEBODSYS",
      "label": "Body System or Organ Class",
      "label_normalized": "body system or organ class",
      "type": "C",
      "length": "200",
      "core": "Perm",
      "role": "Record Qualifier",
      "format": "",
      "codelist_code": "",
      "seq": "26",
      "origin": "Assigned",
      "dataset_level": "Corporate",
      "is_supplemental": false,
      "base_domain": "CE"
    },
    {
      "dataset": "CE",
      "variable": "CEBDSYCD",
      "label": "Body System or Organ Class Code",
      "label_normalized": "body system or organ class code",
      "type": "N",
      "length": "8",
      "core": "Perm",
      "role": "Variable Qualifier",
      "format": "MedDRA",
      "codelist_code": "",
      "seq": "27",
      "origin": "Assigned",
      "dataset_level": "Corporate",
      "is_supplemental": false,
      "base_domain": "CE"
    },
    {
      "dataset": "CE",
      "variable": "CESOC",
      "label": "Primary System Organ Class",
      "label_normalized": "primary system organ class",
      "type": "C",
      "length": "200",
      "core": "Perm",
      "role": "Variable Qualifier",
      "format": "MedDRA",
      "codelist_code": "",
      "seq": "28",
      "origin": "Assigned",
      "dataset_level": "Corporate",
      "is_supplemental": false,
      "base_domain": "CE"
    },
    {
      "dataset": "CE",
      "variable": "CESOCCD",
      "label": "Primary System Organ Class Code",
      "label_normalized": "primary system organ class code",
      "type": "N",
      "length": "8",
      "core": "Perm",
      "role": "Variable Qualifier",
      "format": "MedDRA",
      "codelist_code": "",
      "seq": "29",
      "origin": "Assigned",
      "dataset_level": "Corporate",
      "is_supplemental": false,
      "base_domain": "CE"
    },
    {
      "dataset": "CE",
      "variable": "CELOC",
      "label": "Location of Event",
      "label_normalized": "location of event",
      "type": "C",
      "length": "40",
      "core": "Perm",
      "role": "Record Qualifier",
      "format": "(LOC)",
      "codelist_code": "",
      "seq": "30",
      "origin": "CRF",
      "dataset_level": "Corporate",
      "is_supplemental": false,
      "base_domain": "CE"
    },
    {
      "dataset": "CE",
      "variable": "CELAT",
      "label": "Laterality",
      "label_normalized": "laterality",
      "type": "C",
      "length": "40",
      "core": "Perm",
      "role": "Variable Qualifier",
      "format": "(LAT)",
      "codelist_code": "",
      "seq": "31",
      "origin": "CRF",
      "dataset_level": "Corporate",
      "is_supplemental": false,
      "base_domain": "CE"
    },
    {
      "dataset": "CE",
      "variable": "CESEV",
      "label": "Severity/Intensity",
      "label_normalized": "severity/intensity",
      "type": "C",
      "length": "20",
      "core": "Perm",
      "role": "Record Qualifier",
      "format": "(SEVRS)",
      "codelist_code": "",
      "seq": "32",
      "origin": "CRF",
      "dataset_level": "Corporate",
      "is_supplemental": false,
      "base_domain": "CE"
    },
    {
      "dataset": "CE",
      "variable": "CEREL",
      "label": "Causality",
      "label_normalized": "causality",
      "type": "C",
      "length": "200",
      "core": "Perm",
      "role": "Record Qualifier",
      "format": "",
      "codelist_code": "",
      "seq": "33",
      "origin": "CRF",
      "dataset_level": "Corporate",
      "is_supplemental": false,
      "base_domain": "CE"
    },
    {
      "dataset": "CE",
      "variable": "CEPATT",
      "label": "Pattern of Event",
      "label_normalized": "pattern of event",
      "type": "C",
      "length": "40",
      "core": "Perm",
      "role": "Record Qualifier",
      "format": "(CEPATT)",
      "codelist_code": "",
      "seq": "34",
      "origin": "CRF",
      "dataset_level": "Corporate",
      "is_supplemental": false,
      "base_domain": "CE"
    },
    {
      "dataset": "CE",
      "variable": "CEOUT",
      "label": "Outcome of Event",
      "label_normalized": "outcome of event",
      "type": "C",
      "length": "200",
      "core": "Perm",
      "role": "Record Qualifier",
      "format": "(OUT)",
      "codelist_code": "",
      "seq": "35",
      "origin": "CRF",
      "dataset_level": "Corporate",
      "is_supplemental": false,
      "base_domain": "CE"
    },
    {
      "dataset": "CE",
      "variable": "CECONTRT",
      "label": "Concomitant or Additional Trtmnt Given",
      "label_normalized": "concomitant or additional trtmnt given",
      "type": "C",
      "length": "1",
      "core": "Perm",
      "role": "Record Qualifier",
      "format": "(NY)",
      "codelist_code": "",
      "seq": "36",
      "origin": "CRF",
      "dataset_level": "Corporate",
      "is_supplemental": false,
      "base_domain": "CE"
    },
    {
      "dataset": "CE",
      "variable": "CETOXGR",
      "label": "Standard Toxicity Grade",
      "label_normalized": "standard toxicity grade",
      "type": "C",
      "length": "1",
      "core": "Perm",
      "role": "Record Qualifier",
      "format": "",
      "codelist_code": "",
      "seq": "37",
      "origin": "CRF",
      "dataset_level": "Corporate",
      "is_supplemental": false,
      "base_domain": "CE"
    },
    {
      "dataset": "CE",
      "variable": "VISITNUM",
      "label": "Visit Number",
      "label_normalized": "visit number",
      "type": "N",
      "length": "8",
      "core": "Perm",
      "role": "Timing",
      "format": "",
      "codelist_code": "",
      "seq": "38",
      "origin": "Derived",
      "dataset_level": "Corporate",
      "is_supplemental": false,
      "base_domain": "CE"
    },
    {
      "dataset": "CE",
      "variable": "VISIT",
      "label": "Visit Name",
      "label_normalized": "visit name",
      "type": "C",
      "length": "40",
      "core": "Perm",
      "role": "Timing",
      "format": "",
      "codelist_code": "",
      "seq": "39",
      "origin": "Protocol",
      "dataset_level": "Corporate",
      "is_supplemental": false,
      "base_domain": "CE"
    },
    {
      "dataset": "CE",
      "variable": "VISITDY",
      "label": "Planned Study Day of Visit",
      "label_normalized": "planned study day of visit",
      "type": "N",
      "length": "8",
      "core": "Perm",
      "role": "Timing",
      "format": "",
      "codelist_code": "",
      "seq": "40",
      "origin": "Assigned",
      "dataset_level": "Corporate",
      "is_supplemental": false,
      "base_domain": "CE"
    },
    {
      "dataset": "CE",
      "variable": "TAETORD",
      "label": "Planned Order of Element within Arm",
      "label_normalized": "planned order of element within arm",
      "type": "N",
      "length": "8",
      "core": "Perm",
      "role": "Timing",
      "format": "",
      "codelist_code": "",
      "seq": "41",
      "origin": "Protocol",
      "dataset_level": "Corporate",
      "is_supplemental": false,
      "base_domain": "CE"
    },
    {
      "dataset": "CE",
      "variable": "EPOCH",
      "label": "Epoch",
      "label_normalized": "epoch",
      "type": "C",
      "length": "40",
      "core": "Perm",
      "role": "Timing",
      "format": "(EPOCH)",
      "codelist_code": "",
      "seq": "42",
      "origin": "Protocol",
      "dataset_level": "Corporate",
      "is_supplemental": false,
      "base_domain": "CE"
    },
    {
      "dataset": "CE",
      "variable": "CEDTC",
      "label": "Date/Time of Event Collection",
      "label_normalized": "date/time of event collection",
      "type": "C",
      "length": "19",
      "core": "Perm",
      "role": "Timing",
      "format": "ISO 8601",
      "codelist_code": "",
      "seq": "43",
      "origin": "CRF",
      "dataset_level": "Corporate",
      "is_supplemental": false,
      "base_domain": "CE"
    },
    {
      "dataset": "CE",
      "variable": "CESTDTC",
      "label": "Start Date/Time of Clinical Event",
      "label_normalized": "start date/time of clinical event",
      "type": "C",
      "length": "19",
      "core": "Perm",
      "role": "Timing",
      "format": "ISO 8601",
      "codelist_code": "",
      "seq": "44",
      "origin": "CRF",
      "dataset_level": "Corporate",
      "is_supplemental": false,
      "base_domain": "CE"
    },
    {
      "dataset": "CE",
      "variable": "CEENDTC",
      "label": "End Date/Time of Clinical Event",
      "label_normalized": "end date/time of clinical event",
      "type": "C",
      "length": "19",
      "core": "Perm",
      "role": "Timing",
      "format": "ISO 8601",
      "codelist_code": "",
      "seq": "45",
      "origin": "CRF",
      "dataset_level": "Corporate",
      "is_supplemental": false,
      "base_domain": "CE"
    },
    {
      "dataset": "CE",
      "variable": "CEDY",
      "label": "Study Day of Event Collection",
      "label_normalized": "study day of event collection",
      "type": "N",
      "length": "8",
      "core": "Perm",
      "role": "Timing",
      "format": "",
      "codelist_code": "",
      "seq": "46",
      "origin": "Derived",
      "dataset_level": "Corporate",
      "is_supplemental": false,
      "base_domain": "CE"
    },
    {
      "dataset": "CE",
      "variable": "CESTDY",
      "label": "Study Day of Start of Event",
      "label_normalized": "study day of start of event",
      "type": "N",
      "length": "8",
      "core": "Perm",
      "role": "Timing",
      "format": "",
      "codelist_code": "",
      "seq": "47",
      "origin": "Derived",
      "dataset_level": "Corporate",
      "is_supplemental": false,
      "base_domain": "CE"
    },
    {
      "dataset": "CE",
      "variable": "CEENDY",
      "label": "Study Day of End of Event",
      "label_normalized": "study day of end of event",
      "type": "N",
      "length": "8",
      "core": "Perm",
      "role": "Timing",
      "format": "",
      "codelist_code": "",
      "seq": "48",
      "origin": "Derived",
      "dataset_level": "Corporate",
      "is_supplemental": false,
      "base_domain": "CE"
    },
    {
      "dataset": "CE",
      "variable": "CEDUR",
      "label": "Collected Duration",
      "label_normalized": "collected duration",
      "type": "C",
      "length": "40",
      "core": "Perm",
      "role": "Timing",
      "format": "ISO 8601",
      "codelist_code": "",
      "seq": "49",
      "origin": "CRF",
      "dataset_level": "Corporate",
      "is_supplemental": false,
      "base_domain": "CE"
    },
    {
      "dataset": "CE",
      "variable": "CESTRF",
      "label": "Start Relative to Reference Period",
      "label_normalized": "start relative to reference period",
      "type": "C",
      "length": "40",
      "core": "Perm",
      "role": "Timing",
      "format": "(STENRF)",
      "codelist_code": "",
      "seq": "50",
      "origin": "",
      "dataset_level": "Corporate",
      "is_supplemental": false,
      "base_domain": "CE"
    },
    {
      "dataset": "CE",
      "variable": "CEENRF",
      "label": "End Relative to Reference Period",
      "label_normalized": "end relative to reference period",
      "type": "C",
      "length": "40",
      "core": "Perm",
      "role": "Timing",
      "format": "(STENRF)",
      "codelist_code": "",
      "seq": "51",
      "origin": "Assigned",
      "dataset_level": "Corporate",
      "is_supplemental": false,
      "base_domain": "CE"
    },
    {
      "dataset": "CE",
      "variable": "CEEVLINT",
      "label": "Evaluation Interval",
      "label_normalized": "evaluation interval",
      "type": "C",
      "length": "40",
      "core": "Perm",
      "role": "Timing",
      "format": "ISO 8601",
      "codelist_code": "",
      "seq": "52",
      "origin": "CRF",
      "dataset_level": "Corporate",
      "is_supplemental": false,
      "base_domain": "CE"
    },
    {
      "dataset": "CE",
      "variable": "CEEVINTX",
      "label": "Evaluation Interval Text",
      "label_normalized": "evaluation interval text",
      "type": "C",
      "length": "80",
      "core": "Perm",
      "role": "Timing",
      "format": "",
      "codelist_code": "",
      "seq": "53",
      "origin": "CRF",
      "dataset_level": "Corporate",
      "is_supplemental": false,
      "base_domain": "CE"
    },
    {
      "dataset": "CE",
      "variable": "CESTRTPT",
      "label": "Start Relative to Reference Time Point",
      "label_normalized": "start relative to reference time point",
      "type": "C",
      "length": "40",
      "core": "Perm",
      "role": "Timing",
      "format": "(STENRF)",
      "codelist_code": "",
      "seq": "54",
      "origin": "Assigned",
      "dataset_level": "Corporate",
      "is_supplemental": false,
      "base_domain": "CE"
    },
    {
      "dataset": "CE",
      "variable": "CESTTPT",
      "label": "Start Reference Time Point",
      "label_normalized": "start reference time point",
      "type": "C",
      "length": "40",
      "core": "Perm",
      "role": "Timing",
      "format": "",
      "codelist_code": "",
      "seq": "55",
      "origin": "Assigned",
      "dataset_level": "Corporate",
      "is_supplemental": false,
      "base_domain": "CE"
    },
    {
      "dataset": "CE",
      "variable": "CEENRTPT",
      "label": "End Relative to Reference Time Point",
      "label_normalized": "end relative to reference time point",
      "type": "C",
      "length": "40",
      "core": "Perm",
      "role": "Timing",
      "format": "(STENRF)",
      "codelist_code": "",
      "seq": "56",
      "origin": "Assigned",
      "dataset_level": "Corporate",
      "is_supplemental": false,
      "base_domain": "CE"
    },
    {
      "dataset": "CE",
      "variable": "CEENTPT",
      "label": "End Reference Time Point",
      "label_normalized": "end reference time point",
      "type": "C",
      "length": "40",
      "core": "Perm",
      "role": "Timing",
      "format": "",
      "codelist_code": "",
      "seq": "57",
      "origin": "",
      "dataset_level": "Corporate",
      "is_supplemental": false,
      "base_domain": "CE"
    },
    {
      "dataset": "CE",
      "variable": "ADASSEVT",
      "label": "Associated Events",
      "label_normalized": "associated events",
      "type": "C",
      "length": "8",
      "core": "Supp",
      "role": "",
      "format": "",
      "codelist_code": "",
      "seq": "58",
      "origin": "",
      "dataset_level": "Corporate",
      "is_supplemental": true,
      "base_domain": "CE"
    },
    {
      "dataset": "CE",
      "variable": "ADJACTFL",
      "label": "Adjudication AE Active Event Flag",
      "label_normalized": "adjudication ae active event flag",
      "type": "C",
      "length": "200",
      "core": "Supp",
      "role": "",
      "format": "(NY)",
      "codelist_code": "",
      "seq": "59",
      "origin": "",
      "dataset_level": "Corporate",
      "is_supplemental": true,
      "base_domain": "CE"
    },
    {
      "dataset": "CE",
      "variable": "ADJCYCLE",
      "label": "Cycle of Adjudication",
      "label_normalized": "cycle of adjudication",
      "type": "C",
      "length": "8",
      "core": "Supp",
      "role": "",
      "format": "",
      "codelist_code": "",
      "seq": "60",
      "origin": "",
      "dataset_level": "Corporate",
      "is_supplemental": true,
      "base_domain": "CE"
    },
    {
      "dataset": "CE",
      "variable": "ADJDUPEV",
      "label": "Duplicated Event Flag",
      "label_normalized": "duplicated event flag",
      "type": "C",
      "length": "2",
      "core": "Supp",
      "role": "",
      "format": "",
      "codelist_code": "",
      "seq": "61",
      "origin": "",
      "dataset_level": "Corporate",
      "is_supplemental": true,
      "base_domain": "CE"
    },
    {
      "dataset": "CE",
      "variable": "ADJFCYFL",
      "label": "Final Adjudication Cycle Flag",
      "label_normalized": "final adjudication cycle flag",
      "type": "C",
      "length": "8",
      "core": "Supp",
      "role": "",
      "format": "",
      "codelist_code": "",
      "seq": "62",
      "origin": "",
      "dataset_level": "Corporate",
      "is_supplemental": true,
      "base_domain": "CE"
    },
    {
      "dataset": "CE",
      "variable": "ADJSIGN",
      "label": "Adjudicator e-Signature",
      "label_normalized": "adjudicator e-signature",
      "type": "C",
      "length": "8",
      "core": "Supp",
      "role": "",
      "format": "",
      "codelist_code": "",
      "seq": "63",
      "origin": "",
      "dataset_level": "Corporate",
      "is_supplemental": true,
      "base_domain": "CE"
    },
    {
      "dataset": "CE",
      "variable": "ADJTYPE",
      "label": "Type of Adjudication",
      "label_normalized": "type of adjudication",
      "type": "C",
      "length": "8",
      "core": "Supp",
      "role": "",
      "format": "",
      "codelist_code": "",
      "seq": "64",
      "origin": "",
      "dataset_level": "Corporate",
      "is_supplemental": true,
      "base_domain": "CE"
    },
    {
      "dataset": "CE",
      "variable": "ADMDTC",
      "label": "Admission Date/Time",
      "label_normalized": "admission date/time",
      "type": "C",
      "length": "19",
      "core": "Supp",
      "role": "",
      "format": "ISO 8601",
      "codelist_code": "",
      "seq": "65",
      "origin": "CRF",
      "dataset_level": "Corporate",
      "is_supplemental": true,
      "base_domain": "CE"
    },
    {
      "dataset": "CE",
      "variable": "BSOTH",
      "label": "Specify Other B Symptoms",
      "label_normalized": "specify other b symptoms",
      "type": "C",
      "length": "200",
      "core": "Supp",
      "role": "",
      "format": "",
      "codelist_code": "",
      "seq": "66",
      "origin": "",
      "dataset_level": "Corporate",
      "is_supplemental": true,
      "base_domain": "CE"
    },
    {
      "dataset": "CE",
      "variable": "CEDTH",
      "label": "Death Caused by Event",
      "label_normalized": "death caused by event",
      "type": "C",
      "length": "8",
      "core": "Supp",
      "role": "",
      "format": "",
      "codelist_code": "",
      "seq": "67",
      "origin": "",
      "dataset_level": "Corporate",
      "is_supplemental": true,
      "base_domain": "CE"
    },
    {
      "dataset": "CE",
      "variable": "CEEVAL",
      "label": "Evaluator",
      "label_normalized": "evaluator",
      "type": "C",
      "length": "8",
      "core": "Supp",
      "role": "",
      "format": "",
      "codelist_code": "",
      "seq": "68",
      "origin": "",
      "dataset_level": "Corporate",
      "is_supplemental": true,
      "base_domain": "CE"
    },
    {
      "dataset": "CE",
      "variable": "CEEVALID",
      "label": "Evaluator Identifier",
      "label_normalized": "evaluator identifier",
      "type": "C",
      "length": "8",
      "core": "Supp",
      "role": "",
      "format": "",
      "codelist_code": "",
      "seq": "69",
      "origin": "",
      "dataset_level": "Corporate",
      "is_supplemental": true,
      "base_domain": "CE"
    },
    {
      "dataset": "CE",
      "variable": "CELOCOTH",
      "label": "Other Location of Event",
      "label_normalized": "other location of event",
      "type": "C",
      "length": "200",
      "core": "Supp",
      "role": "",
      "format": "",
      "codelist_code": "",
      "seq": "70",
      "origin": "",
      "dataset_level": "Corporate",
      "is_supplemental": true,
      "base_domain": "CE"
    },
    {
      "dataset": "CE",
      "variable": "CESPFY",
      "label": "Specification of CE Term",
      "label_normalized": "specification of ce term",
      "type": "C",
      "length": "200",
      "core": "Supp",
      "role": "",
      "format": "",
      "codelist_code": "",
      "seq": "71",
      "origin": "CRF",
      "dataset_level": "Corporate",
      "is_supplemental": true,
      "base_domain": "CE"
    },
    {
      "dataset": "CE",
      "variable": "CETERMSP",
      "label": "Reported Term Clinical Event, Specify",
      "label_normalized": "reported term clinical event, specify",
      "type": "C",
      "length": "14",
      "core": "Supp",
      "role": "",
      "format": "",
      "codelist_code": "",
      "seq": "72",
      "origin": "",
      "dataset_level": "Corporate",
      "is_supplemental": true,
      "base_domain": "CE"
    },
    {
      "dataset": "CE",
      "variable": "CRSDES",
      "label": "CRS Description",
      "label_normalized": "crs description",
      "type": "C",
      "length": "200",
      "core": "Supp",
      "role": "",
      "format": "",
      "codelist_code": "",
      "seq": "73",
      "origin": "CRF",
      "dataset_level": "Corporate",
      "is_supplemental": true,
      "base_domain": "CE"
    },
    {
      "dataset": "CE",
      "variable": "CRSDES1",
      "label": "CRS Description",
      "label_normalized": "crs description",
      "type": "C",
      "length": "200",
      "core": "Supp",
      "role": "",
      "format": "",
      "codelist_code": "",
      "seq": "74",
      "origin": "CRF",
      "dataset_level": "Corporate",
      "is_supplemental": true,
      "base_domain": "CE"
    },
    {
      "dataset": "CE",
      "variable": "CRSDES2",
      "label": "CRS Description",
      "label_normalized": "crs description",
      "type": "C",
      "length": "200",
      "core": "Supp",
      "role": "",
      "format": "",
      "codelist_code": "",
      "seq": "75",
      "origin": "CRF",
      "dataset_level": "Corporate",
      "is_supplemental": true,
      "base_domain": "CE"
    },
    {
      "dataset": "CE",
      "variable": "CRSDES3",
      "label": "CRS Description",
      "label_normalized": "crs description",
      "type": "C",
      "length": "200",
      "core": "Supp",
      "role": "",
      "format": "",
      "codelist_code": "",
      "seq": "76",
      "origin": "CRF",
      "dataset_level": "Corporate",
      "is_supplemental": true,
      "base_domain": "CE"
    },
    {
      "dataset": "CE",
      "variable": "CRSDES4",
      "label": "CRS Description",
      "label_normalized": "crs description",
      "type": "C",
      "length": "200",
      "core": "Supp",
      "role": "",
      "format": "",
      "codelist_code": "",
      "seq": "77",
      "origin": "CRF",
      "dataset_level": "Corporate",
      "is_supplemental": true,
      "base_domain": "CE"
    },
    {
      "dataset": "CE",
      "variable": "CRSDES5",
      "label": "CRS Description",
      "label_normalized": "crs description",
      "type": "C",
      "length": "200",
      "core": "Supp",
      "role": "",
      "format": "",
      "codelist_code": "",
      "seq": "78",
      "origin": "CRF",
      "dataset_level": "Corporate",
      "is_supplemental": true,
      "base_domain": "CE"
    },
    {
      "dataset": "CE",
      "variable": "CRSDES6",
      "label": "CRS Description",
      "label_normalized": "crs description",
      "type": "C",
      "length": "200",
      "core": "Supp",
      "role": "",
      "format": "",
      "codelist_code": "",
      "seq": "79",
      "origin": "CRF",
      "dataset_level": "Corporate",
      "is_supplemental": true,
      "base_domain": "CE"
    },
    {
      "dataset": "CE",
      "variable": "CRSDES7",
      "label": "CRS Description",
      "label_normalized": "crs description",
      "type": "C",
      "length": "200",
      "core": "Supp",
      "role": "",
      "format": "",
      "codelist_code": "",
      "seq": "80",
      "origin": "CRF",
      "dataset_level": "Corporate",
      "is_supplemental": true,
      "base_domain": "CE"
    },
    {
      "dataset": "CE",
      "variable": "CRSDES8",
      "label": "CRS Description",
      "label_normalized": "crs description",
      "type": "C",
      "length": "200",
      "core": "Supp",
      "role": "",
      "format": "",
      "codelist_code": "",
      "seq": "81",
      "origin": "CRF",
      "dataset_level": "Corporate",
      "is_supplemental": true,
      "base_domain": "CE"
    },
    {
      "dataset": "CE",
      "variable": "CRSDES9",
      "label": "CRS Description",
      "label_normalized": "crs description",
      "type": "C",
      "length": "200",
      "core": "Supp",
      "role": "",
      "format": "",
      "codelist_code": "",
      "seq": "82",
      "origin": "CRF",
      "dataset_level": "Corporate",
      "is_supplemental": true,
      "base_domain": "CE"
    },
    {
      "dataset": "CE",
      "variable": "CTCAE_V",
      "label": "CTCAE Version",
      "label_normalized": "ctcae version",
      "type": "C",
      "length": "5",
      "core": "Supp",
      "role": "",
      "format": "",
      "codelist_code": "",
      "seq": "83",
      "origin": "",
      "dataset_level": "Corporate",
      "is_supplemental": true,
      "base_domain": "CE"
    },
    {
      "dataset": "CE",
      "variable": "CVELOCO",
      "label": "Location of Hemorrhage Other, Specify",
      "label_normalized": "location of hemorrhage other, specify",
      "type": "C",
      "length": "200",
      "core": "Supp",
      "role": "",
      "format": "",
      "codelist_code": "",
      "seq": "84",
      "origin": "CRF",
      "dataset_level": "Corporate",
      "is_supplemental": true,
      "base_domain": "CE"
    },
    {
      "dataset": "CE",
      "variable": "DISCHDTC",
      "label": "Discharge Date/Time",
      "label_normalized": "discharge date/time",
      "type": "C",
      "length": "19",
      "core": "Supp",
      "role": "",
      "format": "ISO 8601",
      "codelist_code": "",
      "seq": "85",
      "origin": "CRF",
      "dataset_level": "Corporate",
      "is_supplemental": true,
      "base_domain": "CE"
    },
    {
      "dataset": "CE",
      "variable": "EVADJASO",
      "label": "Event Sent to Committee for Furth Assmnt",
      "label_normalized": "event sent to committee for furth assmnt",
      "type": "C",
      "length": "8",
      "core": "Supp",
      "role": "",
      "format": "",
      "codelist_code": "",
      "seq": "86",
      "origin": "",
      "dataset_level": "Corporate",
      "is_supplemental": true,
      "base_domain": "CE"
    },
    {
      "dataset": "CE",
      "variable": "EVTN",
      "label": "Event Tracking Number",
      "label_normalized": "event tracking number",
      "type": "C",
      "length": "8",
      "core": "Supp",
      "role": "",
      "format": "",
      "codelist_code": "",
      "seq": "87",
      "origin": "",
      "dataset_level": "Corporate",
      "is_supplemental": true,
      "base_domain": "CE"
    },
    {
      "dataset": "CE",
      "variable": "HFDESC01",
      "label": "Description of Urgent/Without Hosp HF 1",
      "label_normalized": "description of urgent/without hosp hf 1",
      "type": "C",
      "length": "200",
      "core": "Supp",
      "role": "",
      "format": "",
      "codelist_code": "",
      "seq": "88",
      "origin": "CRF",
      "dataset_level": "Corporate",
      "is_supplemental": true,
      "base_domain": "CE"
    },
    {
      "dataset": "CE",
      "variable": "HFDESC02",
      "label": "Description of Urgent/Without Hosp HF 2",
      "label_normalized": "description of urgent/without hosp hf 2",
      "type": "C",
      "length": "200",
      "core": "Supp",
      "role": "",
      "format": "",
      "codelist_code": "",
      "seq": "89",
      "origin": "CRF",
      "dataset_level": "Corporate",
      "is_supplemental": true,
      "base_domain": "CE"
    },
    {
      "dataset": "CE",
      "variable": "HFDESC03",
      "label": "Description of Urgent/Without Hosp HF 3",
      "label_normalized": "description of urgent/without hosp hf 3",
      "type": "C",
      "length": "200",
      "core": "Supp",
      "role": "",
      "format": "",
      "codelist_code": "",
      "seq": "90",
      "origin": "CRF",
      "dataset_level": "Corporate",
      "is_supplemental": true,
      "base_domain": "CE"
    },
    {
      "dataset": "CE",
      "variable": "HFDESC04",
      "label": "Description of Urgent/Without Hosp HF 4",
      "label_normalized": "description of urgent/without hosp hf 4",
      "type": "C",
      "length": "200",
      "core": "Supp",
      "role": "",
      "format": "",
      "codelist_code": "",
      "seq": "91",
      "origin": "CRF",
      "dataset_level": "Corporate",
      "is_supplemental": true,
      "base_domain": "CE"
    },
    {
      "dataset": "CE",
      "variable": "HFDESC05",
      "label": "Description of Urgent/Without Hosp HF 5",
      "label_normalized": "description of urgent/without hosp hf 5",
      "type": "C",
      "length": "200",
      "core": "Supp",
      "role": "",
      "format": "",
      "codelist_code": "",
      "seq": "92",
      "origin": "CRF",
      "dataset_level": "Corporate",
      "is_supplemental": true,
      "base_domain": "CE"
    },
    {
      "dataset": "CE",
      "variable": "HFDESC06",
      "label": "Description of Urgent/Without Hosp HF 6",
      "label_normalized": "description of urgent/without hosp hf 6",
      "type": "C",
      "length": "200",
      "core": "Supp",
      "role": "",
      "format": "",
      "codelist_code": "",
      "seq": "93",
      "origin": "CRF",
      "dataset_level": "Corporate",
      "is_supplemental": true,
      "base_domain": "CE"
    },
    {
      "dataset": "CE",
      "variable": "HFDESC07",
      "label": "Description of Urgent/Without Hosp HF 7",
      "label_normalized": "description of urgent/without hosp hf 7",
      "type": "C",
      "length": "200",
      "core": "Supp",
      "role": "",
      "format": "",
      "codelist_code": "",
      "seq": "94",
      "origin": "CRF",
      "dataset_level": "Corporate",
      "is_supplemental": true,
      "base_domain": "CE"
    },
    {
      "dataset": "CE",
      "variable": "HFDESC08",
      "label": "Description of Urgent/Without Hosp HF 8",
      "label_normalized": "description of urgent/without hosp hf 8",
      "type": "C",
      "length": "200",
      "core": "Supp",
      "role": "",
      "format": "",
      "codelist_code": "",
      "seq": "95",
      "origin": "CRF",
      "dataset_level": "Corporate",
      "is_supplemental": true,
      "base_domain": "CE"
    },
    {
      "dataset": "CE",
      "variable": "HFDESC09",
      "label": "Description of Urgent/Without Hosp HF 9",
      "label_normalized": "description of urgent/without hosp hf 9",
      "type": "C",
      "length": "200",
      "core": "Supp",
      "role": "",
      "format": "",
      "codelist_code": "",
      "seq": "96",
      "origin": "CRF",
      "dataset_level": "Corporate",
      "is_supplemental": true,
      "base_domain": "CE"
    },
    {
      "dataset": "CE",
      "variable": "HFDESC10",
      "label": "Description of Urgent/Without Hosp HF 10",
      "label_normalized": "description of urgent/without hosp hf 10",
      "type": "C",
      "length": "200",
      "core": "Supp",
      "role": "",
      "format": "",
      "codelist_code": "",
      "seq": "97",
      "origin": "CRF",
      "dataset_level": "Corporate",
      "is_supplemental": true,
      "base_domain": "CE"
    },
    {
      "dataset": "CE",
      "variable": "HFSPEOTH",
      "label": "Symptoms/Signs/PE Findings of HF, Other",
      "label_normalized": "symptoms/signs/pe findings of hf, other",
      "type": "C",
      "length": "200",
      "core": "Supp",
      "role": "",
      "format": "",
      "codelist_code": "",
      "seq": "98",
      "origin": "CRF",
      "dataset_level": "Corporate",
      "is_supplemental": true,
      "base_domain": "CE"
    },
    {
      "dataset": "CE",
      "variable": "HFUOPV",
      "label": "Event Identified During Unsch. Outpt Vis",
      "label_normalized": "event identified during unsch. outpt vis",
      "type": "C",
      "length": "2",
      "core": "Supp",
      "role": "",
      "format": "(NY)",
      "codelist_code": "",
      "seq": "99",
      "origin": "",
      "dataset_level": "Corporate",
      "is_supplemental": true,
      "base_domain": "CE"
    },
    {
      "dataset": "CE",
      "variable": "HRFLA",
      "label": "Heart Failure Adjudication",
      "label_normalized": "heart failure adjudication",
      "type": "C",
      "length": "40",
      "core": "Supp",
      "role": "",
      "format": "",
      "codelist_code": "",
      "seq": "100",
      "origin": "",
      "dataset_level": "Corporate",
      "is_supplemental": true,
      "base_domain": "CE"
    },
    {
      "dataset": "CE",
      "variable": "ICNDES",
      "label": "ICANS Description",
      "label_normalized": "icans description",
      "type": "C",
      "length": "200",
      "core": "Supp",
      "role": "",
      "format": "",
      "codelist_code": "",
      "seq": "101",
      "origin": "CRF",
      "dataset_level": "Corporate",
      "is_supplemental": true,
      "base_domain": "CE"
    },
    {
      "dataset": "CE",
      "variable": "ICNDES1",
      "label": "ICANS Description",
      "label_normalized": "icans description",
      "type": "C",
      "length": "200",
      "core": "Supp",
      "role": "",
      "format": "",
      "codelist_code": "",
      "seq": "102",
      "origin": "CRF",
      "dataset_level": "Corporate",
      "is_supplemental": true,
      "base_domain": "CE"
    },
    {
      "dataset": "CE",
      "variable": "ICNDES2",
      "label": "ICANS Description",
      "label_normalized": "icans description",
      "type": "C",
      "length": "200",
      "core": "Supp",
      "role": "",
      "format": "",
      "codelist_code": "",
      "seq": "103",
      "origin": "CRF",
      "dataset_level": "Corporate",
      "is_supplemental": true,
      "base_domain": "CE"
    },
    {
      "dataset": "CE",
      "variable": "ICNDES3",
      "label": "ICANS Description",
      "label_normalized": "icans description",
      "type": "C",
      "length": "200",
      "core": "Supp",
      "role": "",
      "format": "",
      "codelist_code": "",
      "seq": "104",
      "origin": "CRF",
      "dataset_level": "Corporate",
      "is_supplemental": true,
      "base_domain": "CE"
    },
    {
      "dataset": "CE",
      "variable": "ICNDES4",
      "label": "ICANS Description",
      "label_normalized": "icans description",
      "type": "C",
      "length": "200",
      "core": "Supp",
      "role": "",
      "format": "",
      "codelist_code": "",
      "seq": "105",
      "origin": "CRF",
      "dataset_level": "Corporate",
      "is_supplemental": true,
      "base_domain": "CE"
    },
    {
      "dataset": "CE",
      "variable": "ICNDES5",
      "label": "ICANS Description",
      "label_normalized": "icans description",
      "type": "C",
      "length": "200",
      "core": "Supp",
      "role": "",
      "format": "",
      "codelist_code": "",
      "seq": "106",
      "origin": "CRF",
      "dataset_level": "Corporate",
      "is_supplemental": true,
      "base_domain": "CE"
    },
    {
      "dataset": "CE",
      "variable": "ICNDES6",
      "label": "ICANS Description",
      "label_normalized": "icans description",
      "type": "C",
      "length": "200",
      "core": "Supp",
      "role": "",
      "format": "",
      "codelist_code": "",
      "seq": "107",
      "origin": "CRF",
      "dataset_level": "Corporate",
      "is_supplemental": true,
      "base_domain": "CE"
    },
    {
      "dataset": "CE",
      "variable": "ICNDES7",
      "label": "ICANS Description",
      "label_normalized": "icans description",
      "type": "C",
      "length": "200",
      "core": "Supp",
      "role": "",
      "format": "",
      "codelist_code": "",
      "seq": "108",
      "origin": "CRF",
      "dataset_level": "Corporate",
      "is_supplemental": true,
      "base_domain": "CE"
    },
    {
      "dataset": "CE",
      "variable": "ICNDES8",
      "label": "ICANS Description",
      "label_normalized": "icans description",
      "type": "C",
      "length": "200",
      "core": "Supp",
      "role": "",
      "format": "",
      "codelist_code": "",
      "seq": "109",
      "origin": "CRF",
      "dataset_level": "Corporate",
      "is_supplemental": true,
      "base_domain": "CE"
    },
    {
      "dataset": "CE",
      "variable": "ICNDES9",
      "label": "ICANS Description",
      "label_normalized": "icans description",
      "type": "C",
      "length": "200",
      "core": "Supp",
      "role": "",
      "format": "",
      "codelist_code": "",
      "seq": "110",
      "origin": "CRF",
      "dataset_level": "Corporate",
      "is_supplemental": true,
      "base_domain": "CE"
    },
    {
      "dataset": "CE",
      "variable": "MALADJ",
      "label": "Malignancy Adjudication",
      "label_normalized": "malignancy adjudication",
      "type": "C",
      "length": "200",
      "core": "Supp",
      "role": "",
      "format": "",
      "codelist_code": "",
      "seq": "111",
      "origin": "",
      "dataset_level": "Corporate",
      "is_supplemental": true,
      "base_domain": "CE"
    },
    {
      "dataset": "CE",
      "variable": "MEDDRAV",
      "label": "MedDRA Version",
      "label_normalized": "meddra version",
      "type": "C",
      "length": "20",
      "core": "Supp",
      "role": "",
      "format": "",
      "codelist_code": "",
      "seq": "112",
      "origin": "Assigned",
      "dataset_level": "Corporate",
      "is_supplemental": true,
      "base_domain": "CE"
    },
    {
      "dataset": "CE",
      "variable": "MIADJ",
      "label": "Myocardiac Infarction Adjudication",
      "label_normalized": "myocardiac infarction adjudication",
      "type": "C",
      "length": "200",
      "core": "Supp",
      "role": "",
      "format": "",
      "codelist_code": "",
      "seq": "113",
      "origin": "",
      "dataset_level": "Corporate",
      "is_supplemental": true,
      "base_domain": "CE"
    },
    {
      "dataset": "CE",
      "variable": "MODULE",
      "label": "Source Module Short Name",
      "label_normalized": "source module short name",
      "type": "C",
      "length": "8",
      "core": "Supp",
      "role": "",
      "format": "(MODULE)",
      "codelist_code": "",
      "seq": "114",
      "origin": "CRF",
      "dataset_level": "Corporate",
      "is_supplemental": true,
      "base_domain": "CE"
    },
    {
      "dataset": "CE",
      "variable": "MRSCURR",
      "label": "MRS at Curr Vis or 90 D After Cerebr Ev",
      "label_normalized": "mrs at curr vis or 90 d after cerebr ev",
      "type": "C",
      "length": "2",
      "core": "Supp",
      "role": "",
      "format": "(NY)",
      "codelist_code": "",
      "seq": "115",
      "origin": "",
      "dataset_level": "Corporate",
      "is_supplemental": true,
      "base_domain": "CE"
    },
    {
      "dataset": "CE",
      "variable": "MRSDURH",
      "label": "MRS During Cerebrovascular Event Hosp",
      "label_normalized": "mrs during cerebrovascular event hosp",
      "type": "C",
      "length": "2",
      "core": "Supp",
      "role": "",
      "format": "(NY)",
      "codelist_code": "",
      "seq": "116",
      "origin": "",
      "dataset_level": "Corporate",
      "is_supplemental": true,
      "base_domain": "CE"
    },
    {
      "dataset": "CE",
      "variable": "MRSPRIOR",
      "label": "MRS Prior to Cerebrovascular Event",
      "label_normalized": "mrs prior to cerebrovascular event",
      "type": "C",
      "length": "2",
      "core": "Supp",
      "role": "",
      "format": "(NY)",
      "codelist_code": "",
      "seq": "117",
      "origin": "",
      "dataset_level": "Corporate",
      "is_supplemental": true,
      "base_domain": "CE"
    },
    {
      "dataset": "CE",
      "variable": "PPXPMED",
      "label": "Any Prophyla Med. Prior Study Drug Infus",
      "label_normalized": "any prophyla med. prior study drug infus",
      "type": "C",
      "length": "2",
      "core": "Supp",
      "role": "",
      "format": "(NY)",
      "codelist_code": "",
      "seq": "118",
      "origin": "CRF",
      "dataset_level": "Corporate",
      "is_supplemental": true,
      "base_domain": "CE"
    },
    {
      "dataset": "CE",
      "variable": "SCAADJ",
      "label": "Serious Cardiac Arrhythmia Adjudication",
      "label_normalized": "serious cardiac arrhythmia adjudication",
      "type": "C",
      "length": "200",
      "core": "Supp",
      "role": "",
      "format": "",
      "codelist_code": "",
      "seq": "119",
      "origin": "",
      "dataset_level": "Corporate",
      "is_supplemental": true,
      "base_domain": "CE"
    },
    {
      "dataset": "CE",
      "variable": "SOLARSEV",
      "label": "Maximum Intensity after end of eDiary",
      "label_normalized": "maximum intensity after end of ediary",
      "type": "C",
      "length": "20",
      "core": "Supp",
      "role": "",
      "format": "",
      "codelist_code": "",
      "seq": "120",
      "origin": "",
      "dataset_level": "Corporate",
      "is_supplemental": true,
      "base_domain": "CE"
    },
    {
      "dataset": "CE",
      "variable": "STRKAJD",
      "label": "Stroke Event Adjudication",
      "label_normalized": "stroke event adjudication",
      "type": "C",
      "length": "200",
      "core": "Supp",
      "role": "",
      "format": "",
      "codelist_code": "",
      "seq": "121",
      "origin": "",
      "dataset_level": "Corporate",
      "is_supplemental": true,
      "base_domain": "CE"
    },
    {
      "dataset": "CE",
      "variable": "VISITDTC",
      "label": "Date of Visit",
      "label_normalized": "date of visit",
      "type": "C",
      "length": "19",
      "core": "Supp",
      "role": "",
      "format": "ISO 8601",
      "codelist_code": "",
      "seq": "122",
      "origin": "CRF",
      "dataset_level": "Corporate",
      "is_supplemental": true,
      "base_domain": "CE"
    }
  ],
  "CM": [
    {
      "dataset": "CM",
      "variable": "STUDYID",
      "label": "Study Identifier",
      "label_normalized": "study identifier",
      "type": "C",
      "length": "21",
      "core": "Req",
      "role": "Identifier",
      "format": "",
      "codelist_code": "",
      "seq": "1",
      "origin": "Protocol",
      "dataset_level": "Corporate",
      "is_supplemental": false,
      "base_domain": "CM"
    },
    {
      "dataset": "CM",
      "variable": "DOMAIN",
      "label": "Domain Abbreviation",
      "label_normalized": "domain abbreviation",
      "type": "C",
      "length": "8",
      "core": "Req",
      "role": "Identifier",
      "format": "(DOMAIN)",
      "codelist_code": "",
      "seq": "2",
      "origin": "Assigned",
      "dataset_level": "Corporate",
      "is_supplemental": false,
      "base_domain": "CM"
    },
    {
      "dataset": "CM",
      "variable": "USUBJID",
      "label": "Unique Subject Identifier",
      "label_normalized": "unique subject identifier",
      "type": "C",
      "length": "30",
      "core": "Req",
      "role": "Identifier",
      "format": "",
      "codelist_code": "",
      "seq": "3",
      "origin": "Derived",
      "dataset_level": "Corporate",
      "is_supplemental": false,
      "base_domain": "CM"
    },
    {
      "dataset": "CM",
      "variable": "SPDEVID",
      "label": "Sponsor Device Identifier",
      "label_normalized": "sponsor device identifier",
      "type": "C",
      "length": "40",
      "core": "Perm",
      "role": "Identifier",
      "format": "",
      "codelist_code": "",
      "seq": "4",
      "origin": "CRF",
      "dataset_level": "Corporate",
      "is_supplemental": false,
      "base_domain": "CM"
    },
    {
      "dataset": "CM",
      "variable": "CMSEQ",
      "label": "Sequence Number",
      "label_normalized": "sequence number",
      "type": "N",
      "length": "8",
      "core": "Req",
      "role": "Identifier",
      "format": "",
      "codelist_code": "",
      "seq": "5",
      "origin": "Derived",
      "dataset_level": "Corporate",
      "is_supplemental": false,
      "base_domain": "CM"
    },
    {
      "dataset": "CM",
      "variable": "CMGRPID",
      "label": "Group ID",
      "label_normalized": "group id",
      "type": "C",
      "length": "40",
      "core": "Perm",
      "role": "Identifier",
      "format": "",
      "codelist_code": "",
      "seq": "6",
      "origin": "Derived",
      "dataset_level": "Corporate",
      "is_supplemental": false,
      "base_domain": "CM"
    },
    {
      "dataset": "CM",
      "variable": "CMREFID",
      "label": "Reference ID",
      "label_normalized": "reference id",
      "type": "C",
      "length": "8",
      "core": "Perm",
      "role": "Identifier",
      "format": "",
      "codelist_code": "",
      "seq": "7",
      "origin": "CRF",
      "dataset_level": "Corporate",
      "is_supplemental": false,
      "base_domain": "CM"
    },
    {
      "dataset": "CM",
      "variable": "CMSPID",
      "label": "Sponsor-Defined Identifier",
      "label_normalized": "sponsor-defined identifier",
      "type": "C",
      "length": "40",
      "core": "Perm",
      "role": "Identifier",
      "format": "",
      "codelist_code": "",
      "seq": "8",
      "origin": "Assigned",
      "dataset_level": "Corporate",
      "is_supplemental": false,
      "base_domain": "CM"
    },
    {
      "dataset": "CM",
      "variable": "CMLNKID",
      "label": "Link ID",
      "label_normalized": "link id",
      "type": "C",
      "length": "40",
      "core": "Perm",
      "role": "Identifier",
      "format": "",
      "codelist_code": "",
      "seq": "9",
      "origin": "Assigned",
      "dataset_level": "Corporate",
      "is_supplemental": false,
      "base_domain": "CM"
    },
    {
      "dataset": "CM",
      "variable": "CMLNKGRP",
      "label": "Link Group ID",
      "label_normalized": "link group id",
      "type": "C",
      "length": "40",
      "core": "Perm",
      "role": "Identifier",
      "format": "",
      "codelist_code": "",
      "seq": "10",
      "origin": "Derived",
      "dataset_level": "Corporate",
      "is_supplemental": false,
      "base_domain": "CM"
    },
    {
      "dataset": "CM",
      "variable": "CMTRT",
      "label": "Reported Name of Drug, Med, or Therapy",
      "label_normalized": "reported name of drug, med, or therapy",
      "type": "C",
      "length": "200",
      "core": "Req",
      "role": "Topic",
      "format": "",
      "codelist_code": "",
      "seq": "11",
      "origin": "CRF",
      "dataset_level": "Corporate",
      "is_supplemental": false,
      "base_domain": "CM"
    },
    {
      "dataset": "CM",
      "variable": "CMMODIFY",
      "label": "Modified Reported Name",
      "label_normalized": "modified reported name",
      "type": "C",
      "length": "200",
      "core": "Perm",
      "role": "Synonym Qualifier",
      "format": "",
      "codelist_code": "",
      "seq": "12",
      "origin": "Assigned",
      "dataset_level": "Corporate",
      "is_supplemental": false,
      "base_domain": "CM"
    },
    {
      "dataset": "CM",
      "variable": "CMDECOD",
      "label": "Standardized Medication Name",
      "label_normalized": "standardized medication name",
      "type": "C",
      "length": "200",
      "core": "Perm",
      "role": "Synonym Qualifier",
      "format": "",
      "codelist_code": "",
      "seq": "13",
      "origin": "Assigned",
      "dataset_level": "Corporate",
      "is_supplemental": false,
      "base_domain": "CM"
    },
    {
      "dataset": "CM",
      "variable": "CMCAT",
      "label": "Category for Medication",
      "label_normalized": "category for medication",
      "type": "C",
      "length": "40",
      "core": "Perm",
      "role": "Grouping Qualifier",
      "format": "",
      "codelist_code": "",
      "seq": "14",
      "origin": "CRF",
      "dataset_level": "Corporate",
      "is_supplemental": false,
      "base_domain": "CM"
    },
    {
      "dataset": "CM",
      "variable": "CMSCAT",
      "label": "Subcategory for Medication",
      "label_normalized": "subcategory for medication",
      "type": "C",
      "length": "40",
      "core": "Perm",
      "role": "Grouping Qualifier",
      "format": "",
      "codelist_code": "",
      "seq": "15",
      "origin": "Assigned",
      "dataset_level": "Corporate",
      "is_supplemental": false,
      "base_domain": "CM"
    },
    {
      "dataset": "CM",
      "variable": "CMPRESP",
      "label": "CM Pre-specified",
      "label_normalized": "cm pre-specified",
      "type": "C",
      "length": "1",
      "core": "Perm",
      "role": "Variable Qualifier",
      "format": "(NY)",
      "codelist_code": "",
      "seq": "16",
      "origin": "Assigned",
      "dataset_level": "Corporate",
      "is_supplemental": false,
      "base_domain": "CM"
    },
    {
      "dataset": "CM",
      "variable": "CMOCCUR",
      "label": "CM Occurrence",
      "label_normalized": "cm occurrence",
      "type": "C",
      "length": "1",
      "core": "Perm",
      "role": "Record Qualifier",
      "format": "(NY)",
      "codelist_code": "",
      "seq": "17",
      "origin": "Assigned",
      "dataset_level": "Corporate",
      "is_supplemental": false,
      "base_domain": "CM"
    },
    {
      "dataset": "CM",
      "variable": "CMREASOC",
      "label": "Reason for Occur Value",
      "label_normalized": "reason for occur value",
      "type": "C",
      "length": "200",
      "core": "Perm",
      "role": "",
      "format": "",
      "codelist_code": "",
      "seq": "18",
      "origin": "",
      "dataset_level": "Corporate",
      "is_supplemental": false,
      "base_domain": "CM"
    },
